t,ax,ay,az,temp,P,hum,roll,pitch,yaw,gx,gy,gz,cx,cy,cz
0.212056,0.010910066,-0.171029165,1.006711721,8.441103935,1020.40332,34.98956299,351.91479,359.637139,203.3702386,-0.003048057,-0.016917141,0.001765608,-25.66639709,11.58491898,-5.603654385
0.314545,0.016001431,-0.157761738,1.00183773,8.548772812,1020.390625,34.65515518,352.0565634,359.2167819,203.4408081,0.032339133,-0.090666875,0.024373725,-28.19180298,12.58517838,-6.037240982
0.436527,0.02545682,-0.152454779,1.017190695,8.548772812,1020.385742,35.71466827,351.9646923,358.8539339,203.6121912,-0.043789245,-0.008156415,0.048437059,-29.17621613,13.06790924,-6.039517879
0.558478,0.047761846,-0.144735545,1.000619292,8.459049225,1020.386963,34.46311951,351.8921454,358.6859612,203.5037824,0.0275914,-0.071335398,-0.041035481,-29.83388329,13.52757931,-6.144697189
0.685272,0.032245304,-0.156073153,1.020846009,8.602607727,1020.38208,35.35708237,351.863059,358.2962219,203.0084708,-0.023657162,0.017024424,-0.019801157,-30.14619446,13.71948528,-6.137830257
0.807416,0.011152512,-0.156314373,1.024745226,8.441103935,1020.368896,35.3405304,351.6368953,358.3599793,202.8946798,0.019621048,-0.028172899,0.004647387,-30.38039207,13.75776291,-6.398638725
0.936322,0.022305025,-0.156555608,1.0052495,8.476993561,1020.351318,37.18805695,351.752013,358.0314187,203.0294804,0.020384055,-0.057214312,0.013582567,-30.19386292,13.9217577,-6.748476982
1.058728,0.033942427,-0.155349478,1.030593991,8.530828476,1020.330811,34.63197708,351.6274474,357.7924549,203.1405256,-0.042094264,0.071210198,-0.001583873,-29.91465569,14.27513504,-6.683706284
1.181401,0.026184158,-0.152937219,1.014022589,8.40521431,1020.310547,34.70481873,351.5557739,357.8048096,203.2138955,0.014509587,-0.045406379,-0.001692252,-30.21377373,13.99195099,-6.338747501
1.304135,0.035397101,-0.155590713,1.030106544,8.49493885,1020.297119,36.38017654,351.5763328,357.5217837,203.147629,-0.024649752,-0.00792745,-0.002328278,-30.17588425,13.83722496,-5.84401989
1.426373,0.032487754,-0.147630244,1.017678142,8.369324684,1020.28418,35.43654633,351.6403394,357.5127145,202.8568132,-0.001817892,-0.018064028,-0.044145197,-30.42394257,13.76628399,-6.25290966
1.548964,0.008485607,-0.164998516,1.017921686,8.512883186,1020.281006,34.21810532,351.5410694,357.547325,202.750959,0.005518096,-0.0374837,0.042987209,-30.22049904,13.78913021,-6.948226452
1.675257,0.029335955,-0.162103802,1.026451111,8.49493885,1020.273926,35.19815826,351.4740874,357.2339008,203.0298902,-0.005609856,-0.062158089,0.040015735,-30.18185043,13.27262783,-6.576364994
1.797726,0.056247454,-0.133397922,1.038148642,8.530828476,1020.262939,35.10876083,351.5537659,357.0390419,202.9869147,-0.000728077,0.020474736,-0.053675618,-30.0829277,13.69011307,-6.402565956
1.92728,0.026911497,-0.148836374,1.025232673,8.584662437,1020.250488,35.52594376,351.5695009,357.2686415,202.6863864,-0.003611759,0.015114689,-0.028887536,-30.1419735,13.88425255,-6.376713753
2.009742,0.021092795,-0.161138907,1.01621592,8.548772812,1020.25293,35.70142365,351.5397384,357.3791565,202.6773295,0.017163798,-0.028506093,0.005817825,-30.16559982,14.00418186,-6.575714111
2.092057,0.030548185,-0.152454779,1.031325102,8.530828476,1020.25708,34.27439117,351.5529608,357.2874533,202.7784846,0.004701282,-0.018993547,0.008184312,-29.88594627,14.09479141,-6.605538368
2.181562,0.034912214,-0.147389024,1.031812429,8.584662437,1020.258301,34.86374664,351.5358392,357.3036249,202.863179,-0.027727619,-0.00065538,0.073587216,-29.82909203,14.4221468,-6.433642387
2.268011,0.029578403,-0.14328818,1.03254354,8.548772812,1020.255615,35.21139908,351.5430006,357.3976986,202.9208121,0.017657641,-0.013522403,-0.007108775,-29.98997116,14.02543163,-6.349669456
2.350308,0.033942427,-0.164033607,1.03595531,8.441103935,1020.265625,33.48637772,351.5838973,357.326271,203.04993,0.02665933,-0.021680955,-0.011490245,-30.31633759,14.42504215,-6.83658123
2.444065,0.037821561,-0.158726633,1.031325102,8.530828476,1020.269531,35.43985748,351.6120265,357.3298978,203.144897,-0.037254088,-0.005080814,0.027896354,-30.22068024,14.33968449,-7.194482327
2.523879,0.045337386,-0.134845272,1.031568766,8.584662437,1020.269043,35.25444412,351.5465626,357.3771931,203.2251653,0.009969427,0.009272358,-0.013812983,-29.8862648,14.54541969,-6.474317074
2.611561,0.038064007,-0.142564505,1.03668642,8.620552063,1020.267334,35.45972443,351.5917349,357.3323614,203.1054185,0.000568616,0.00158567,-0.027685024,-29.95079041,14.32473469,-6.712835312
2.73463,0.027638834,-0.156314373,1.030106544,8.512883186,1020.266357,33.53273392,351.603114,357.4388415,203.2097291,-0.005910385,-0.018667007,0.014839009,-30.11915398,14.23147488,-6.358187675
2.861534,0.041458253,-0.138946116,1.013047814,8.512883186,1020.256348,35.370327,351.6846357,357.3290236,203.3226595,-0.018285036,-0.032806911,-0.009888153,-30.07418823,14.02183533,-6.501558781
2.984553,0.04048847,-0.14545922,1.026451111,8.459049225,1020.249512,35.26106644,351.6960259,357.351642,203.2995871,-0.003433604,-0.005398835,-0.000287933,-30.15667343,14.15729618,-6.239155293
3.107006,0.036609333,-0.140393466,1.034980536,8.530828476,1020.239746,34.790905,351.7369763,357.3959584,203.3683807,0.004533431,0.01521669,0.007549591,-29.78962326,14.30011177,-6.741414547
3.229098,0.038064007,-0.14545922,1.027913332,8.512883186,1020.229004,36.2543602,351.7183111,357.4696252,203.4611074,0.000343597,-0.013853913,0.005812116,-29.82824898,14.2305069,-6.957445621
3.351747,0.031760417,-0.146424115,1.03254354,8.584662437,1020.222412,34.91341019,351.7577597,357.5017685,203.4997389,0.0046078,0.005377144,0.020737179,-29.55133247,14.27237701,-6.271746635
3.474179,0.034427322,-0.148595139,1.02498889,8.530828476,1020.215088,35.03923035,351.9312107,357.577587,203.6491971,-0.012365771,-0.01205261,0.020347096,-29.88283539,14.34512711,-6.177227974
3.596309,0.040003575,-0.14208205,1.029375434,8.49493885,1020.214111,35.21802139,351.8517508,357.5433487,203.793642,-0.007857107,-0.005845458,0.007607985,-30.12934875,14.15911293,-6.47742939
3.718961,0.036609333,-0.151007414,1.046921611,8.656441689,1020.213867,34.94983292,351.7986452,357.5587585,203.8061276,0.007579929,0.010213169,-0.007851792,-29.83823967,14.09488201,-6.435605049
3.840825,0.026184158,-0.151248649,1.028888106,8.620552063,1020.219482,35.11207199,351.8147722,357.6348978,203.9196043,0.009852109,-0.011431538,0.028697472,-29.92158318,13.73465729,-6.392018795
3.970289,0.042912927,-0.14304696,1.031081438,8.638497353,1020.22583,34.78428268,351.8244224,357.6331162,203.9060806,-0.008884553,0.007759248,-0.011892423,-29.77950859,14.21539879,-5.460819244
4.092477,0.032730199,-0.155831918,1.030350208,8.459049225,1020.229004,35.76102448,351.7296731,357.6301122,203.8509473,-0.013660034,-0.01428626,0.005603211,-29.84517288,13.90233898,-5.837978363
4.215341,0.029578403,-0.153419673,1.029619217,8.512883186,1020.24292,34.94652176,351.943137,357.654271,204.0081099,0.002066582,-0.026450969,0.029536163,-29.54760933,14.21047878,-5.494720459
4.346564,0.041458253,-0.142564505,1.038635969,8.49493885,1020.25415,33.97971344,351.9566207,357.5016767,204.0715624,-0.019511821,0.089989439,-0.019632414,-29.3206234,13.99028397,-5.761515141
4.469776,0.052610762,-0.14666535,1.025232673,8.638497353,1020.264893,33.76781082,351.857168,357.6457478,203.7801455,-0.020622242,0.003076781,-0.073472261,-29.63153267,14.09337521,-5.784995079
4.591774,0.031275522,-0.151489854,1.052526712,8.620552063,1020.27002,35.61534119,352.0889675,357.7769256,203.354775,0.031444252,0.01366001,-0.014114992,-29.96597672,14.16468716,-6.06120491
4.714581,0.016486323,-0.161862567,1.026451111,8.620552063,1020.281738,33.67179489,352.1427348,357.7005886,203.4935235,-0.017683718,-0.023602787,0.037230074,-30.1709156,13.49731064,-6.438189507
4.851007,0.039033793,-0.147389024,1.029862881,8.656441689,1020.290771,34.48629379,352.0662427,357.8117265,203.7795855,-0.003238895,-0.016733043,0.038773291,-29.96631813,13.87927341,-6.787621021
4.973556,0.037579119,-0.135810181,1.043753505,8.566718102,1020.285645,34.87036896,352.1065647,357.6984995,203.8832814,-0.019190121,0.009405239,0.027957708,-29.9609375,14.08047581,-6.921290874
5.095274,0.035639551,-0.153902128,1.041072845,8.620552063,1020.29248,34.79421616,351.9857489,357.8381852,203.9203693,0.005876511,0.009026032,0.012817031,-29.53434372,13.97851849,-6.76259613
5.217645,0.043155372,-0.138463661,1.012316704,8.512883186,1020.297607,34.57238007,352.0569818,357.7977088,203.9628668,-0.005269089,-0.031605996,-0.019483764,-29.6483326,14.16391659,-6.749690533
5.339575,0.043882709,-0.150283724,1.029375434,8.602607727,1020.29541,34.38696671,351.9314813,357.6996649,203.7153953,-0.047481511,0.006911367,-0.012665416,-29.38781548,14.42767811,-6.816838264
5.472396,0.035881996,-0.148353934,1.038879633,8.566718102,1020.297852,34.82732773,352.0897838,357.8048114,203.8101437,0.050590541,-0.006161207,-0.025176324,-29.49353027,14.56088734,-6.554650784
5.594703,0.043155372,-0.140875921,1.031812429,8.548772812,1020.305908,33.80754471,352.2722565,357.7683044,203.7723591,0.009600047,0.018572042,-0.030376652,-29.64831161,14.42344666,-6.523082256
5.717324,0.027638834,-0.156314373,1.028888106,8.530828476,1020.307129,34.42669678,352.1714814,357.8386438,203.6828836,-0.003716927,0.001978086,-0.013282016,-29.47284508,13.88303089,-6.679920673
5.839439,0.027881281,-0.157761738,1.044240952,8.602607727,1020.304443,35.56567383,352.0420382,357.9255147,203.8915049,-0.020749629,-0.003532914,0.017396776,-29.7021637,14.04520988,-6.846662521
5.961598,0.045579832,-0.14208205,1.026694775,8.566718102,1020.311768,34.29425812,352.0821621,357.8383992,203.9615554,0.021978401,-0.012294768,-0.010703016,-29.78982544,14.11392975,-6.89824152
6.084355,0.036609333,-0.142323285,1.043022513,8.584662437,1020.309326,34.80414963,352.0434298,357.8016673,203.9190579,-0.038623173,0.018508969,0.002696128,-29.72369385,14.50251579,-7.074176788
6.211035,0.03733667,-0.151731089,1.02498889,8.620552063,1020.309814,34.71806335,351.9782903,357.9217034,203.9580856,0.026656084,-0.022973269,0.004677933,-30.09429741,14.39421749,-6.933846474
6.333689,0.033215091,-0.142564505,1.061543465,8.674386024,1020.304932,34.65846634,352.056163,357.8137909,203.9793138,-0.004175372,0.042336181,0.007779248,-30.02547646,13.99362755,-6.52335453
6.455993,0.030305739,-0.140152246,1.029619217,8.512883186,1020.296631,34.56906891,352.0275146,357.9489905,203.8343909,0.004305245,-0.013528096,-0.008867358,-29.73670006,13.80055523,-6.643016815
6.57818,0.029578403,-0.153178439,1.044240952,8.656441689,1020.303955,34.07242203,351.7489266,357.9027309,203.9009716,-0.002848822,0.004362924,0.00296175,-29.96686363,13.99375248,-6.838657379
6.701409,0.034912214,-0.146424115,1.038392186,8.638497353,1020.298584,34.77434921,351.7522623,357.9035127,203.8676129,-0.009801373,0.083246149,-0.007547638,-29.81537247,13.87956524,-6.935369015
6.823729,0.02909351,-0.141599596,1.029375434,8.548772812,1020.293457,33.88038635,351.8015831,358.0366497,203.8649492,0.011407293,-0.017625652,0.004232779,-29.75960732,13.91018581,-6.622331619
6.955386,0.04461005,-0.140393466,1.03668642,8.602607727,1020.300049,35.15180206,351.8402419,357.9163654,203.7913744,-0.016887845,0.086444423,-0.029775485,-29.88427353,14.23542213,-6.310481071
7.077651,0.022305025,-0.153660893,1.030593991,8.656441689,1020.302734,35.84710693,351.8275301,358.1542812,203.7645454,0.011805113,-0.017711734,0.017735181,-29.84588432,14.24381351,-6.473285675
7.200277,0.037579119,-0.155108258,1.053745151,8.638497353,1020.30127,34.11215591,351.9315138,357.981763,203.6953419,0.000559594,0.021294784,-0.006248768,-29.77858162,14.00277424,-6.495507717
7.322808,0.031033078,-0.14594166,1.034493089,8.566718102,1020.291504,34.43331909,352.1454617,358.1412359,203.8541984,0.011169378,-0.022138732,0.032314103,-29.93957329,14.18863583,-6.904891968
7.44531,0.045822278,-0.150766194,1.02498889,8.656441689,1020.288818,32.97317886,352.1147319,357.8218258,203.8940458,-0.023672441,-0.003478587,-0.019942934,-29.8759613,14.39728737,-6.58454752
7.56793,0.033942427,-0.140634701,1.040341854,8.674386024,1020.302246,35.42992401,352.0007377,357.9905464,203.7494916,-0.010174985,0.020344481,-0.009585551,-29.91130829,14.3610487,-6.377680302
7.694448,0.02545682,-0.14714779,1.024257898,8.49493885,1020.312012,34.35716629,352.1066475,358.0160217,203.8292136,0.022241775,-0.025638886,0.006125433,-29.82849693,14.39663124,-6.073412895
7.816616,0.043155372,-0.151489854,1.024014115,8.674386024,1020.297607,34.18830872,352.1120937,357.9293784,203.9868544,-0.033483848,-0.000323039,-0.011298899,-29.71303368,14.29327393,-6.27280426
7.939149,0.035881996,-0.144253075,1.042535067,8.656441689,1020.299561,34.59224701,352.123384,357.9131636,203.9394119,0.015931442,-0.000294559,0.007228224,-29.41276741,14.34226894,-6.532189369
8.061492,0.02133524,-0.158244193,1.043753505,8.656441689,1020.291748,34.90348053,352.1348852,357.9473205,204.1352744,-0.00703224,-0.006377658,0.024512909,-29.43610954,14.37773705,-7.237144947
8.183735,0.043397821,-0.141358376,1.045703173,8.548772812,1020.289551,34.13201904,352.0770011,357.9144197,203.973235,-0.009706126,0.01838804,0.003142348,-29.44571495,14.26950073,-6.918543816
8.306316,0.041943144,-0.148112699,1.030106544,8.638497353,1020.281738,34.67502213,352.0739164,357.920337,203.8896335,-0.01152111,-0.011782768,-0.031142706,-29.73314667,14.42647839,-6.844526291
8.436457,0.022547469,-0.148353934,1.043022513,8.620552063,1020.290527,35.628582,351.8146671,358.0083969,203.9477311,0.004560828,-0.001663304,0.030328747,-29.49775887,14.56904507,-6.494437218
8.559418,0.038306456,-0.141117156,1.03936708,8.530828476,1020.291748,34.56244659,351.9082681,357.9240206,204.1525274,0.026936326,-0.008141475,0.021259116,-29.57392883,14.38143635,-6.579131126
8.681779,0.043640263,-0.147389024,1.034980536,8.656441689,1020.293945,33.84396362,351.6434582,357.9015234,204.3036659,-0.025023192,0.005073687,-0.007410461,-29.09239197,14.24625874,-6.372368813
8.805251,0.040730912,-0.138222441,1.045215726,8.764110565,1020.289063,35.53918839,351.6282252,357.9185069,204.0802777,0.013440877,0.022143405,-0.031401549,-29.27859116,14.2039299,-5.994272232
8.927585,0.017940998,-0.154625803,1.01621592,8.620552063,1020.294678,34.68164444,351.7540475,358.0164302,204.129619,0.005686516,-0.04092823,0.030171413,-29.66519165,13.77533627,-5.86888504
9.050175,0.038306456,-0.128573403,1.045215726,8.638497353,1020.29541,32.14874268,351.6218893,358.0571454,204.2086033,-0.018220153,0.030544557,0.005154344,-29.73727417,14.53598404,-6.172087669
9.172602,0.03976113,-0.152213544,1.030837655,8.692331314,1020.297607,34.95976639,351.6648965,358.1324131,204.1512297,0.020728832,-0.022504378,-0.021561395,-29.45868492,14.20258141,-5.752295017
9.299538,0.032730199,-0.150042504,1.048871279,8.674386024,1020.294922,34.29756927,351.7356419,358.0366882,204.0248575,-0.014584934,0.019452265,-0.002124602,-29.75768089,13.94041252,-6.460039616
9.428407,0.022789916,-0.148353934,1.018652797,8.72822094,1020.291504,34.54258347,351.790186,357.9029319,204.0890477,0.023014685,-0.02764694,0.004567385,-29.91919899,13.39970016,-6.617284298
9.554824,0.041458253,-0.137257531,1.045215726,8.620552063,1020.287842,32.59241486,351.80532,357.8652967,204.0080006,-0.015591437,0.040093191,-0.009589353,-29.8241787,12.59712124,-6.733210564
9.677032,0.024487037,-0.146182895,1.02230823,8.602607727,1020.285156,34.40351868,351.8318101,357.766395,203.8008956,0.017565543,-0.030675117,-1.95E-05,-29.91072464,12.43964291,-6.971794128
9.800978,0.036366891,-0.150042504,1.072266102,8.602607727,1020.282471,35.99610138,351.8391431,357.841708,203.9007257,0.015478518,0.029074287,0.065683462,-29.89097786,12.30265427,-6.982813835
9.938987,0.060369033,-0.146906585,1.024257898,8.620552063,1020.268311,34.60549164,351.9293418,357.6226182,203.8886226,-0.0161357,-0.009836189,-0.058273982,-29.65855217,12.76262474,-6.935255051
10.061127,0.032730199,-0.149560064,1.085425854,8.674386024,1020.265869,32.39375687,351.7146885,358.2857254,203.1639805,-0.011946343,0.103081189,-0.006749464,-29.65950394,11.92785358,-7.076282501
10.183215,0.023032364,-0.162345037,1.004762053,8.620552063,1020.256104,34.2644577,351.799073,358.0963159,203.0709397,0.034190703,-0.122838534,-0.002648365,-28.9634819,11.62666702,-7.407137871
10.323509,0.046549615,-0.137498766,1.067635894,8.764110565,1020.243408,34.27439117,351.758967,358.1028526,203.0647652,-0.051193126,0.082566693,0.031788137,-28.700634,11.41965294,-7.173403263
10.44593,0.027396388,-0.155108258,1.028888106,8.638497353,1020.235107,33.56253052,351.8169629,358.1809546,202.9676399,0.079549327,-0.108727701,-0.002791792,-28.81376457,11.70218658,-6.896969318
10.572952,0.041458253,-0.14184083,1.034493089,8.674386024,1020.230713,35.37694931,352.1755274,357.8000646,202.8769213,-0.026768144,0.04982055,0.007368662,-28.7616539,11.43122387,-6.85051918
10.695349,0.026426604,-0.140152246,1.028644443,8.674386024,1020.215576,34.31743622,352.1139652,358.1572892,202.6498175,-0.013845799,-0.006646469,0.004773531,-28.79632187,11.72117615,-7.006912708
10.817787,0.033699982,-0.128332168,1.038635969,8.620552063,1020.20752,33.79098892,352.2376804,358.0899107,202.6333977,0.032465715,-0.010161288,0.030402904,-28.70795631,11.7829504,-7.185814857
10.940617,0.120980509,-0.137016311,1.026451111,8.566718102,1020.189697,33.91680527,352.2697806,357.7301463,202.4417836,-0.076199256,0.076239645,-0.063857175,-28.56970406,11.4230051,-6.807164192
11.062812,-0.000493671,-0.182849228,1.024257898,8.602607727,1020.188232,34.33068085,352.2405593,358.1663175,201.6563392,-0.001036644,0.029885251,-0.031508885,-28.44754028,11.42555904,-7.504366875
11.185696,0.017213661,-0.153178439,1.025963783,8.584662437,1020.179199,34.38365555,352.3132052,358.2467028,201.706022,0.052466966,-0.044821635,0.052238144,-28.54515076,11.53437519,-8.149447441
11.308299,0.062551044,-0.134121597,1.036442757,8.584662437,1020.171875,34.17837524,352.2697874,358.0108143,201.8502483,-0.054505128,0.025455471,-0.00022648,-28.33876419,11.56805611,-6.97986412
11.439641,0.030790633,-0.149318829,1.045459509,8.638497353,1020.165527,34.23797226,352.1100139,358.1433877,201.4198097,0.000519273,0.023785856,-0.023788225,-28.26765823,11.43144131,-6.78195858
11.562243,0.057459682,-0.158244193,1.02303946,8.656441689,1020.162354,33.51617813,352.1389235,358.2280371,201.6071891,0.000671041,-0.049669288,0.09583991,-28.52667618,11.11179256,-6.19878912
11.685435,0.052368317,-0.134362817,1.026694775,8.72822094,1020.1521,34.22472763,352.2918703,358.0391314,201.9600504,-0.004034142,0.021511795,0.020143222,-28.5040741,11.11167336,-5.95886898
11.811948,0.000242446,-0.146182895,1.040829301,8.620552063,1020.14209,33.1453476,352.2072118,357.9776094,201.5919305,-0.003359645,0.008560743,-0.08043699,-28.1863327,11.17241383,-6.13132
11.93653,0.017456107,-0.153902128,1.047652841,8.71027565,1020.144531,34.28101349,352.1347469,358.1294155,201.0656098,-0.013381179,0.030312639,-0.025723161,-28.19804382,11.40621376,-6.322415829
12.058911,0.029335955,-0.159209087,1.025476336,8.530828476,1020.142334,34.19823837,352.1349894,358.2375649,201.2682752,0.024836682,-0.043494619,0.024678942,-28.02807808,10.97371387,-6.385505676
12.181837,0.04461005,-0.153660893,1.03668642,8.638497353,1020.14917,34.43000793,352.0243181,357.9198153,201.1965582,-0.030179657,0.002737114,-0.007312203,-28.12516022,11.52661037,-6.113675594
12.308437,0.021577686,-0.147630244,1.062030911,8.674386024,1020.134521,34.49622726,351.8116055,358.1106403,201.1428182,-0.003976839,0.015939904,0.037154667,-28.42792702,11.76486588,-6.967531681
12.431016,0.025699267,-0.148836374,1.038879633,8.674386024,1020.14209,34.27770233,351.9302596,358.0477738,201.3683238,0.026558956,-0.010695384,0.013988067,-28.20762062,11.73288345,-5.581432819
12.553444,0.060126588,-0.144253075,1.034005761,8.638497353,1020.151611,34.3108139,352.0213333,358.0092438,201.2499156,-0.025029812,0.007952819,-0.047727615,-28.2636528,11.54314899,-5.461068153
12.675689,0.02497193,-0.144735545,1.050089717,8.602607727,1020.155762,34.08897781,351.9162227,358.0202976,200.9588949,-0.003565423,0.015077854,-0.0140594,-28.5422802,11.64495754,-5.796769142
12.798345,0.019880565,-0.145218,1.045703173,8.638497353,1020.146973,34.29094696,352.0276632,358.0679105,200.8384514,-0.000342716,-0.01018088,0.001351909,-28.47395325,12.02854919,-5.634031773
12.926894,0.045337386,-0.137257531,1.030106544,8.602607727,1020.154541,33.13210297,352.1416112,357.7961507,200.7173521,0.005982325,-0.000209331,-0.007808207,-28.76689339,12.60831547,-6.149722099
13.053633,0.033215091,-0.125919923,1.052526712,8.638497353,1020.16626,34.09560013,352.1447044,357.8360654,200.6253358,-0.010171845,0.051158022,-0.019883616,-28.80291367,12.85932636,-6.322441578
13.175691,0.013334526,-0.151007414,1.020358801,8.692331314,1020.175293,34.83725739,352.116407,358.205222,200.8213759,0.024895286,-0.036763839,0.032908674,-28.90627861,13.09010983,-6.232686043
13.303035,0.050186306,-0.137498766,1.036198974,8.72822094,1020.202148,34.02275848,351.9595884,357.8324393,201.0940234,-0.014567633,-0.02050193,-0.005930364,-28.91680527,13.65339565,-6.610665798
13.425855,0.090432331,-0.058617894,1.043022513,8.638497353,1020.215576,34.22803879,352.1300989,357.2203151,200.6548286,0.011699572,-0.062957063,-0.22431469,-28.88400269,14.19771481,-6.329885483
13.548663,0.087522976,-0.141599596,0.986728549,8.548772812,1020.233643,34.27439117,351.2374863,356.1169145,199.9371669,-0.200881541,-0.433446854,-0.17605634,-28.85819626,15.3266325,-7.140325069
13.671066,0.087765418,-0.17078793,1.095173597,8.602607727,1020.231934,33.45658112,349.6526749,353.2774217,200.1787507,-0.273574501,-0.044325676,-0.12413279,-28.22247314,15.92979145,-7.594517231
13.793426,0.102554627,-0.198287681,1.004031062,8.602607727,1020.233398,34.211483,348.4652926,354.5585987,199.380206,-0.101310499,0.384196281,-0.127797976,-28.11079979,16.30757141,-9.192878723
13.916411,-0.021968372,-0.254734546,0.9669891,8.674386024,1020.234131,33.15859222,348.208346,356.5831172,199.7953039,0.042548269,-0.05165606,0.290644705,-28.11206627,15.85776234,-10.3314743
14.038688,0.052125871,-0.259800285,1.057644248,8.548772812,1020.243164,33.96647263,346.8165268,357.0420732,203.7105869,-0.678883612,0.068378963,0.703284204,-27.85942078,15.76719952,-9.503470421
14.161119,0.014061864,-0.188879877,0.982585669,8.656441689,1020.237305,34.09228897,341.4131548,2.599859427,208.005123,-0.800140321,0.961158514,0.647695422,-28.12094879,12.8055315,-5.475461006
14.284048,-0.032088634,-0.316005915,0.981610894,8.566718102,1020.250488,34.03269196,333.7760061,11.47912072,209.8636038,-1.290054202,1.159689784,1.059113145,-32.1222496,8.184829712,-2.769192457
14.411618,-0.442823172,-0.585696459,0.710619986,8.692331314,1020.26001,34.1816864,327.5038314,18.08258944,211.8539209,-0.536246538,-0.129235938,0.921363056,-40.49193573,2.006928444,-2.250868797
14.550969,-0.334215462,-0.476179928,0.758384645,8.530828476,1020.253174,34.05586624,324.9291438,18.61545689,211.5230665,0.227029562,0.13313067,0.030721551,-47.75402832,-3.010354757,-0.45121184
14.673417,-0.39148134,-0.503679693,0.867560804,8.548772812,1020.261475,31.86730957,325.2854782,19.09345232,209.8983831,-0.063742287,-0.08067216,0.224976689,-53.53000641,-5.666238785,1.208847284
14.795624,-0.387531996,-0.499337614,0.828569293,8.638497353,1020.254395,32.91357803,326.236179,19.44700681,208.6257549,0.107768118,-0.039358553,0.164195165,-57.81464767,-6.14023304,2.991190434
14.918146,-0.407525659,-0.536968827,0.749367833,8.584662437,1020.255127,33.96647263,327.3797678,20.23830301,207.3751883,0.035987154,-0.075633869,0.151525721,-61.14432526,-5.656168938,3.518157959
15.040784,-0.379139543,-0.503438473,0.872922122,8.548772812,1020.258301,34.56575775,327.7310752,22.19813017,205.518415,-0.125044227,0.387980163,0.364499003,-64.31426239,-4.562616348,4.221528053
15.163463,-0.514158607,-0.537692547,0.745956063,8.638497353,1020.267578,34.00289154,327.2073875,28.35069798,204.9690356,0.012400446,0.309483975,0.38526842,-68.53147888,-2.644538403,0.865868866
15.285745,-0.526747286,-0.398505181,0.707939327,8.476993561,1020.266846,35.16835785,328.1789546,29.48914025,203.6510686,0.000480362,-0.076797269,0.091106586,-72.71367645,-1.042406917,-1.5146029
15.408466,-0.56475997,-0.505850673,0.750098884,8.530828476,1020.271973,34.32405853,328.9931405,31.62112916,203.2763371,-0.253355056,0.298091441,0.73210299,-74.68701935,1.217231989,-2.404250383
15.531233,-0.819000721,-0.614161134,0.868535578,8.584662437,1020.270996,34.29425812,325.3422029,31.62347533,201.7309522,-0.203264102,-0.343011647,-0.069657683,-75.03822327,2.121441841,-1.626048803
15.653342,-0.520576358,-0.460017771,0.786166072,8.584662437,1020.266602,33.79098892,327.2594506,29.73015372,203.0419523,0.252441347,-0.001232531,0.163387403,-74.36499023,2.193106174,-0.769248545
15.776026,-0.503297865,-0.446267903,0.702578008,8.602607727,1020.263672,34.09560013,325.664639,30.29093957,198.9524859,-0.737465739,-0.226641804,-0.302091897,-71.2605896,2.612989426,-3.273321629
15.922698,-0.548468769,-0.538898647,0.588771582,8.584662437,1020.268555,34.44656372,312.9355604,24.15051925,195.6125917,-1.23715353,0.642314017,-0.245586872,-64.36093903,1.81734848,-1.976644993
16.045529,-0.357911706,-0.621639132,0.404780447,8.620552063,1020.270264,33.97309494,307.0379209,23.19777617,187.4657606,-2.676657438,0.857644022,-0.644481838,-59.42903519,0.283585727,-2.194215536
16.167759,-0.538595378,-0.831505656,0.172049969,8.602607727,1020.275879,34.06911087,288.9422363,26.11045911,177.5724738,1.079247475,-0.009479212,0.291058242,-56.77279282,-2.31544137,-2.672014236
16.290102,-0.539089024,-0.758414209,0.577317834,8.602607727,1020.287598,33.79098892,293.7639946,25.00534304,177.1732356,-2.30983305,-0.429143637,-0.483824313,-54.41777802,-2.032376766,-2.126458168
16.412539,-0.536867499,-1.09420073,0.309982389,8.674386024,1020.290039,34.53596115,298.1967191,25.8471741,175.3301774,2.778369188,0.867417872,1.591895819,-51.39137268,-0.472736627,-3.097621202
16.539482,0.087038085,-0.327343553,0.184234813,8.620552063,1020.291016,33.31752014,317.8664891,35.73600053,178.4828424,1.386818051,-0.394324332,0.929717898,-51.13336182,7.184248924,-14.35951805
16.661662,-1.138652802,-0.547100365,0.514444053,8.620552063,1020.293945,33.78436661,318.3820625,43.08588172,180.0654692,0.977232993,1.078166366,0.779750466,-52.16951752,8.148382187,-24.64623451
16.784633,-0.61239922,-0.591003478,0.493973523,8.566718102,1020.300537,34.94983292,324.72404,47.35179931,181.5736979,1.094519019,-0.425783873,0.579692066,-53.92374802,6.530626774,-31.73504066
16.907265,-0.804190516,-0.436377645,0.523948193,8.674386024,1020.287598,33.91680527,331.6408719,45.22684891,182.7666314,0.201434121,-0.521384299,-0.558349848,-55.31139374,3.922762156,-35.74452972
17.029972,-0.659544885,-0.556508124,0.633855462,8.548772812,1020.305176,34.26776886,330.7197338,39.6883817,179.9392436,0.356288463,-0.723580658,-0.650590539,-56.82757568,0.021912834,-36.38392639
17.152367,-0.595861256,-0.511881351,0.61460346,8.530828476,1020.293701,33.83403015,329.0050899,32.07355406,175.8500367,-0.032221835,-0.759316325,-0.477410227,-58.753685,-4.971899509,-33.91046143
17.27493,-0.55760169,-0.432759285,0.776174426,8.566718102,1020.291748,35.41667938,328.1494038,29.9911011,176.3094489,-0.005343764,0.26052323,0.457519025,-60.07070541,-8.658302307,-31.76246452
17.408388,-0.663000584,-0.409842789,0.681376398,8.584662437,1020.289307,34.07573318,331.3748992,33.26523082,173.43954,-0.100333311,-0.192433357,-0.346990496,-61.61108398,-10.95710182,-33.0533371
17.527494,-0.664728403,-0.51767081,0.738401473,8.620552063,1020.275391,34.64853287,324.8454398,29.68373234,169.4448492,-1.465311766,0.079707116,-0.759935379,-61.93330383,-14.04169273,-32.04690552
17.649947,-0.411968678,-0.726572454,0.46984753,8.620552063,1020.267578,33.75457001,321.8541243,29.5339019,171.7359815,0.414931506,-0.224198341,-0.222373992,-62.17117691,-16.59207916,-31.33764839
17.772327,-0.524772584,-0.642143309,0.6418975,8.620552063,1020.255859,33.84396362,322.8765353,27.326033,169.4321178,-0.067652017,-0.05010175,0.0537371,-61.23371506,-18.13788414,-29.67502403
17.894686,-0.320886344,-0.69593668,0.630443752,8.656441689,1020.243408,33.56253052,320.3485082,31.80165106,168.4017291,-0.070400916,0.944997728,0.823732734,-60.86357498,-18.65383339,-30.99463081
18.017425,-0.610671401,-0.537933767,0.420864463,8.566718102,1020.223877,33.89031982,327.5436719,48.47743156,170.4357458,2.901153088,2.258663416,2.115407228,-60.16656876,-15.63289833,-36.42417145
18.13965,-0.834798157,-0.351224929,0.565864086,8.620552063,1020.195313,33.49300003,341.4992066,66.2446114,171.395401,0.977843881,2.17955637,0.555868328,-58.33039856,-13.07081032,-46.13266373
18.266398,-1.046336293,-0.257388026,0.560746431,8.620552063,1020.162109,32.98310852,337.4371941,75.68377574,157.8457947,1.10062778,0.322526038,-0.244365141,-56.16631317,-15.22556305,-55.48971939
18.388351,-0.750874043,-0.028223429,0.089193046,8.638497353,1020.117676,31.3011322,325.4849675,79.94345054,140.6549052,-0.540767133,0.616963089,0.435222447,-54.42329407,-18.27994347,-62.12154388
18.510755,-2.447375536,0.081335515,0.378461212,8.602607727,1020.108398,33.70490265,327.1092855,82.23610598,136.6364863,0.611630142,0.590390444,-0.258415043,-52.29965973,-17.24180412,-65.83435822
18.633585,-1.035475492,-0.242914468,-0.183422759,8.584662437,1020.111328,33.90687561,303.6649822,83.69469288,111.7417582,0.07254155,-0.095916644,0.165220007,-49.93692398,-16.90840912,-69.01847076
18.75607,-0.971298277,-0.151972309,0.128671929,8.638497353,1020.090576,33.64199448,316.3767839,84.66630095,124.0177528,0.098503329,-0.031470358,0.301748395,-48.98794556,-16.01184082,-70.77981567
18.87764,-1.043374181,-0.031359363,0.066529237,8.638497353,1020.084961,31.2249794,329.8745047,84.83096315,137.1490647,-0.12782225,-0.291088104,-0.099590078,-49.57357788,-16.24682617,-71.63643646
19.00218,-1.042633772,-0.106139392,0.173268467,8.548772812,1020.07373,33.33738708,332.9847133,83.65473627,140.8536774,0.029780986,0.024729241,0.147504911,-51.16355515,-16.53371239,-71.93850708
19.124633,-1.028070569,-0.037390016,0.167176038,8.566718102,1020.081543,32.48315048,335.6090871,84.07086555,143.6516644,-0.113311209,0.079346173,0.05423142,-52.02716064,-16.71255493,-72.5556488
19.252361,-1.031526208,-0.039561048,0.28000766,8.656441689,1020.088867,31.15876007,329.0873527,85.28478141,138.5385164,0.093230471,0.507499635,-0.097453386,-51.31549454,-16.2495594,-74.00379944
19.374826,-1.033007145,-0.103244685,-0.246572241,8.620552063,1020.103027,32.5659256,276.2751177,86.63704275,84.92460505,-0.120572366,0.321796626,0.12490157,-49.23364258,-14.68574238,-77.59092712
19.497649,-1.026836276,-0.226993561,-0.123165607,8.620552063,1020.12915,33.44664764,241.5694785,87.14062577,50.38332754,0.187609151,0.138537049,-0.012237679,-48.46366882,-16.01111984,-81.45331573
19.626572,-1.19246304,0.036904473,-0.041938975,8.71027565,1020.158447,33.64199448,211.8943693,87.07671569,19.65937618,-0.220754266,-0.072822325,0.384519309,-49.77139664,-22.748703,-82.63142395
19.752919,-1.023133755,-0.065130994,-0.022415658,8.548772812,1020.157227,33.44664764,253.4510639,89.58082013,63.52408558,-0.555203021,-0.738360047,0.016167555,-51.66920471,-28.18279266,-81.20884705
19.874971,-0.882190645,-0.009649036,0.095285468,8.548772812,1020.119141,33.49631119,349.4229415,84.74946533,162.9570165,-0.510915279,-0.45614025,0.117571183,-54.21527481,-30.66409302,-76.73856354
20.002229,-0.94908303,-0.025328718,0.171562582,8.638497353,1020.094482,32.29442596,359.2729273,80.19937772,174.9236035,-0.446468979,-0.725531876,0.28800258,-57.80036163,-31.24661827,-71.77829742
20.12555,-1.068798304,0.006798192,0.259049743,8.566718102,1020.073975,32.57254791,8.392704226,76.20761027,186.5065561,-0.711889923,-0.003183687,0.622451305,-60.66911697,-30.32310486,-68.23750305
20.248231,-0.993019819,0.04151753,0.248327091,8.638497353,1020.041504,34.66839981,18.21175856,77.00396251,201.0325517,-1.002050877,0.337984562,0.339926153,-61.63659668,-26.57402611,-68.20870972
20.371717,-0.985367894,0.041760322,0.157184467,8.692331314,1019.998047,32.95331192,8.417654053,79.52954107,196.7730545,-0.99930203,0.210008278,-0.379062265,-61.06955338,-23.9861908,-69.93643188
20.501409,-0.981665373,0.134021491,0.196907043,8.602607727,1019.947021,33.3969841,351.2166824,81.37417709,183.133112,-0.739684343,0.475429237,-0.305453002,-60.32891464,-22.03704453,-72.59955597
20.623681,-0.95895648,0.180637673,0.089436747,8.674386024,1019.908447,32.87384796,331.4929948,84.44864331,166.3375776,-0.826732635,0.59851855,-0.191832051,-58.00315857,-20.06516266,-75.33894348
20.746317,-1.113722444,-0.109999008,-0.134252921,8.71027565,1019.852783,32.88709259,275.7822239,86.95290485,112.6681095,-0.429059297,0.216422364,-0.162205085,-54.23051453,-17.28572845,-78.76890564
20.876592,-1.077190757,-0.227958485,-0.041938975,8.620552063,1019.825928,34.19823837,269.023137,85.29896771,107.9478204,-0.709141076,-0.161703229,-0.179309323,-52.23202133,-15.38885689,-79.09335327
20.998942,-0.827146292,-0.012302521,0.253201008,8.584662437,1019.82373,33.43671417,277.5576769,81.78890618,120.5383725,-0.995942295,-0.142155543,-0.582174957,-51.53203583,-14.14070892,-78.56439972
21.121517,-1.232203603,-0.099867523,0.310957193,8.72822094,1019.84668,33.17845917,283.0240003,80.34145932,130.2458472,-0.942491591,-0.17789115,0.382992148,-51.61980057,-11.62408257,-77.82080078
21.244251,-0.947108388,0.07817921,0.212991059,8.692331314,1019.864746,33.03608704,297.9816091,84.74271028,150.3299228,-1.298625946,0.14006421,0.853358328,-51.18479156,-5.599781036,-76.31258392
21.384061,-1.009557843,-0.008442907,-0.208489731,8.674386024,1019.887939,33.373806,36.26244419,88.24777211,256.4236578,-1.220740676,-0.144904435,0.249823511,-49.82629395,3.734790087,-72.52500153
21.506191,-1.042633772,-0.17392388,-0.378896922,8.584662437,1019.914795,33.1917038,143.9882971,83.84304459,7.184494988,-0.361253262,1.861176968,0.751038432,-46.88263321,11.78007126,-71.39520264
21.627771,-0.967595696,-0.120854177,-0.341537535,8.656441689,1019.953613,32.24807358,158.7233374,70.27384928,25.5006769,-0.537487924,1.647068739,-0.135327026,-38.61293411,17.33127213,-74.2779541
21.750689,-1.005114794,0.261487603,-0.468800604,8.764110565,1019.992432,32.89040375,176.0497924,70.19633346,33.39164055,2.441701889,-1.692226052,-0.580647826,-33.38873672,16.74295235,-79.0007019
21.872817,-1.141121149,-0.245809183,-0.543278456,8.620552063,1020.016846,34.06579971,204.6009157,74.3208593,43.89007161,2.295399666,-0.59999907,-0.315532267,-34.80628586,6.411756992,-84.44861603
22.002389,-0.679785371,-0.358461678,-0.220541164,8.746165276,1020.034424,33.43009186,234.8367561,71.56323873,62.97071049,1.803347707,0.221614718,-0.675637364,-36.83517456,-8.380199432,-87.94887543
22.124888,-0.982652724,-0.306839347,-0.335511804,8.674386024,1020.040283,33.04270935,238.1879338,69.38339751,50.32109086,2.950552464,0.831869066,0.706750691,-34.34394073,-25.24755859,-89.20367432
22.247455,-1.044608474,0.018209444,-0.260310888,8.638497353,1020.02832,33.79761124,237.3947303,70.38294789,31.06711202,1.761503458,0.728021979,0.169800162,-31.35455704,-41.99960327,-83.41697693
22.369834,-0.777779162,0.173596695,-0.344188839,8.692331314,1020.001953,32.7712059,230.0364992,67.26748687,13.09979739,0.573370516,1.126000643,-0.170146346,-27.07503128,-53.26203156,-78.12319183
22.492119,-1.239855409,-0.476903588,-0.246813267,8.620552063,1019.976318,32.6420784,228.1909274,64.65555423,4.550233605,0.90995729,0.67487669,0.146587282,-23.05721855,-58.80267715,-73.95518494
22.619627,-0.94192487,-0.560367763,-0.238618299,8.602607727,1019.950928,32.97317886,229.8944176,62.48810981,2.200942869,0.583755255,0.176105261,0.459655732,-20.31414032,-62.5146637,-70.6230545
22.742019,-0.860469043,-0.442890733,-0.229941279,8.72822094,1019.907471,32.64538956,227.3358151,61.96624921,358.2848534,-0.215561911,0.609208703,0.018000152,-19.2807312,-64.6693573,-68.50209045
22.865309,-0.852817118,-0.501991093,-0.345393956,8.746165276,1019.883789,31.57263184,222.3386848,61.22414232,354.1606092,0.318945169,0.39479503,0.378716081,-19.0511322,-65.26166534,-68.03207397
22.987781,-0.755070269,-0.320589215,-0.415774316,8.638497353,1019.847656,32.40699768,220.6435411,60.40375464,349.792815,-0.068343386,0.227112502,0.099550657,-19.78649139,-65.76712036,-66.10266113
23.110136,-0.863184273,-0.353154719,-0.374317408,8.674386024,1019.80127,32.52950668,216.7736652,59.80564864,349.1671279,-0.993498802,-0.131770834,-0.158539906,-19.73110199,-64.85844421,-67.32485199
23.232856,-0.816285491,-0.330961943,-0.366845518,8.746165276,1019.750488,31.97988319,212.6578342,61.16437817,352.7126091,-0.942797005,-0.470495582,-0.003685566,-20.6412735,-62.51267242,-70.97860718
23.355503,-1.008323669,-0.393921882,-0.562560737,8.746165276,1019.727051,33.07581711,214.2738296,64.29184666,357.0358985,0.328108162,-0.756685972,0.382992148,-23.35402107,-60.79946136,-71.93486023
23.485212,-0.807399392,-0.384996533,-0.401071578,8.620552063,1019.696289,32.07921219,215.2529509,70.16492825,351.8080547,1.465233803,-0.407881916,1.04669714,-28.6889286,-60.93771362,-66.61439514
23.607206,-0.811842442,0.036418889,-0.518934548,8.72822094,1019.673584,32.54275131,210.7231421,73.25300021,335.003292,1.686672449,0.162055358,0.526239991,-36.10913086,-60.70989609,-57.17790222
23.729648,-1.037203431,0.030591864,-0.30056265,8.746165276,1019.609131,30.56278229,208.4668574,72.95806581,319.8441055,1.99913013,0.55056566,0.364666194,-40.83414459,-59.32633591,-47.22377396
23.852228,-0.925633669,-0.158244193,-0.302008808,8.638497353,1019.603271,30.00322723,207.1875083,70.32086147,303.180394,2.651228666,0.83522886,0.727520108,-44.49098969,-56.93161774,-36.24268341
23.974748,-0.994253993,-0.041008402,-0.357445389,8.764110565,1019.578857,32.5891037,205.5103827,67.65273003,281.4287618,2.964907885,0.686483145,0.872906029,-48.65573883,-52.01489639,-26.46099472
24.097248,-0.980678022,-0.181401879,-0.320568025,8.656441689,1019.538574,33.62543869,204.70733,67.00422406,262.3359583,2.753548622,0.590577304,1.140465021,-53.0071106,-43.01171112,-18.93321419
24.223606,-1.014247775,-0.082016803,-0.363471121,8.746165276,1019.504639,29.99329376,203.4951764,66.14256154,244.0513643,1.94445765,0.605543494,0.667044461,-57.70275116,-32.57118988,-14.33028221
24.349549,-0.930570364,-0.20142363,-0.274531543,8.71027565,1019.490234,30.33432579,205.6791977,64.48037354,236.9525165,1.708052754,0.55728513,0.433388531,-61.12837219,-23.66217041,-14.53696346
24.471678,-0.997462869,-0.219033122,-0.23307465,8.764110565,1019.487305,32.31760406,209.0396234,62.82468787,231.1607756,1.928269744,0.638530254,0.384824723,-63.59896469,-15.65716934,-16.32828522
24.59389,-0.959943831,-0.071885318,-0.293572843,8.638497353,1019.459229,31.23822403,213.1595662,60.7832741,227.5330983,0.701652229,0.327294409,-0.078821994,-64.8742981,-10.4943037,-19.74024391
24.723559,-0.978950202,-0.188638657,-0.268505841,8.746165276,1019.449219,30.64886856,212.724169,58.39065201,239.2632105,-0.123932123,0.14342396,-0.185723409,-65.60336304,-8.626823425,-22.99712563
24.846015,-0.976728678,-0.245326743,-0.129673392,8.800000191,1019.449463,31.40708351,208.0595869,58.27242826,253.6126525,-0.500836015,0.00933905,-0.195802674,-65.73449707,-8.605476379,-24.45919418
24.975902,-0.848620951,-0.328308463,-0.167273834,8.800000191,1019.451172,31.35741806,203.6765179,59.85442985,268.9049679,-0.437000573,-0.076792948,-0.010710515,-65.12120056,-9.929830551,-25.70265961
25.098368,-1.091754079,-0.309975266,-0.842153847,8.674386024,1019.439209,30.90712547,205.3698584,61.65908877,276.1465189,-0.670961976,-0.759129465,-0.56445986,-64.55657959,-11.16685867,-26.39615059
25.220577,-1.141121149,-0.330961943,-0.320327014,8.800000191,1019.407715,30.93030167,203.0041131,63.00029887,288.4400124,-0.259849638,0.158084735,0.137424305,-63.85612488,-12.63091278,-26.46214294
25.342639,-0.796044946,-0.171752825,-0.287065059,8.782054901,1019.402344,31.65209579,198.5896935,61.41215011,287.4722703,-0.383855283,0.376469076,0.013724095,-62.97237778,-12.91166115,-28.61900711
25.465699,-0.809620917,-0.121095404,-0.396974087,8.72822094,1019.418213,31.24484444,194.002115,58.40758405,282.7325493,-0.155391678,0.364557207,-0.306063861,-62.62224579,-13.18647194,-31.81938362
25.592962,-0.959697008,-0.40767175,-0.43746686,8.72822094,1019.442871,34.53264999,198.4440056,56.53118765,290.1857883,1.32045877,0.462601066,0.137118876,-62.03393936,-14.03561783,-34.49291611
25.715657,-1.104836345,-0.293089479,-0.732244849,8.71027565,1019.502197,32.81425095,204.4570992,52.01761764,277.6801559,0.617352843,0.515135467,-0.124636889,-61.28516006,-14.58901119,-38.21237183
25.837694,-0.666456282,-0.319865555,-0.579914749,8.782054901,1019.567871,32.97648621,204.5617377,48.38166889,264.0542154,0.107891239,0.27414915,-0.079738289,-60.51165009,-14.37572479,-41.87492752
25.960126,-0.525019467,-0.310216516,-0.597027838,8.764110565,1019.621826,31.24484444,203.6815039,46.63787037,256.1391121,-0.337854266,-0.002280615,-0.078087583,-59.17839813,-14.2541647,-45.19620895
26.094518,-0.669665098,-0.424316347,-0.620889604,8.764110565,1019.63623,32.36395645,203.0922089,45.67814,246.0950594,-0.027998514,-0.008712837,-0.036683947,-58.74104309,-14.10732174,-45.8002739
26.220649,-0.737298131,-0.324207604,-0.576540351,8.853834152,1019.667236,32.16860962,203.6100602,45.45395953,238.4440932,-0.174911618,-0.095455706,-0.079444513,-58.24379349,-14.35416698,-45.97698212
26.346645,-0.679785371,-0.337475002,-0.605704844,8.746165276,1019.704346,32.66194534,202.1196173,45.71349306,231.6814546,-0.254934937,0.005031631,-0.131062627,-58.0976181,-14.28371906,-45.77072525
26.475369,-0.75605756,-0.441684633,-0.679941654,8.746165276,1019.748535,34.24459457,202.3089911,44.8179289,223.3526127,0.219401896,0.017248936,0.162458122,-58.18414688,-14.33128166,-45.45239639
26.597629,-0.653373957,-0.338198692,-0.66572094,8.746165276,1019.78125,31.92028427,203.0799419,44.8258246,213.5668367,0.397163719,0.000144709,0.394281477,-58.19980621,-13.75125217,-45.3228302
26.720112,-0.72100693,-0.548306465,-0.643305302,8.674386024,1019.799316,32.59241486,203.1691441,46.38616082,202.831364,0.720616817,-0.206938609,0.765382111,-58.25458908,-12.23412323,-45.21095657
26.842148,-0.713355005,-0.539139867,-0.615828037,8.853834152,1019.816162,33.08575058,206.4111754,49.64053423,189.4629489,1.613090992,-0.206022307,1.13678813,-58.66799164,-9.205928802,-44.40642166
26.96487,-0.640538454,-0.401641101,-0.585217357,8.764110565,1019.817627,31.58587646,211.4732198,52.82613104,173.2632528,2.056273699,0.131786168,1.161222816,-58.79302597,-5.334869862,-44.76691818
27.0872,-0.828133583,-0.214691058,-0.466872394,8.72822094,1019.827637,33.13541412,217.013036,56.76679161,156.0320926,2.190358639,0.019081531,0.940089583,-58.52988815,-1.447374344,-46.38381577
27.209899,-0.877747536,0.010197288,-0.409507573,8.764110565,1019.840088,32.66856766,223.3912169,62.0865425,136.8008753,2.071239948,0.263427645,1.015836835,-57.366539,1.416941881,-49.98131561
27.332407,-1.012766719,0.03107745,-0.239823446,8.835889816,1019.857422,32.41362,221.3219291,66.05204788,113.893944,1.542841434,0.533124626,0.791954756,-55.28398895,4.313110828,-54.80547714
27.455135,-0.862443745,0.033505373,-0.243197858,8.71027565,1019.881836,32.86391449,218.9503645,66.56279576,95.88701768,1.183652639,0.671485603,0.433682293,-52.43647766,5.107758522,-60.27908325
27.57746,-0.993513525,0.059969768,-0.212828249,8.674386024,1019.915771,32.61890411,213.1592247,65.96679346,77.09813033,1.10057497,0.788466334,0.464225531,-48.6664238,4.657990456,-65.91651917
27.700218,-0.975494504,0.167041287,-0.355999202,8.782054901,1019.931396,32.66856766,210.5438496,63.14784461,66.30624703,0.164118618,0.512660682,-0.395261854,-45.0487175,3.741065264,-70.46658325
27.826605,-0.986602128,-0.272585273,-0.459159464,8.638497353,1019.983154,32.70829773,206.6405878,59.15932833,61.40924728,-0.169719249,0.624754429,-0.022328613,-41.68650436,3.479084492,-72.91311646
27.955407,-0.967595696,-0.044626791,-0.537975788,8.800000191,1020.011475,31.39052773,204.5783761,56.14554834,58.42247386,-0.755844474,0.061536666,-0.226663038,-39.07661819,3.603704214,-74.64478302
28.082769,-0.732361376,-0.152695999,-0.495795816,8.764110565,1020.054199,32.73809814,196.5056662,54.76515344,58.70505927,-0.976366818,0.213031247,-0.564166069,-38.14529419,7.327991962,-72.87386322
28.205511,-0.913291872,-0.129538313,-0.62402302,8.764110565,1020.072021,32.76458359,197.9211956,54.75955269,61.93799271,0.061187811,-0.353851706,-0.422445357,-39.04124451,9.302062988,-70.83141327
28.32824,-0.828627288,-0.173682645,-0.26248011,8.782054901,1020.070068,32.49308395,206.6148243,56.71022398,65.57487037,1.62714088,-0.374010265,-0.466427654,-40.69668579,6.89058733,-70.54772186
28.454377,-0.814804494,-0.266313374,-0.521344841,8.835889816,1020.065186,32.69836426,234.9888371,53.98242401,88.0444647,0.563013613,-1.159277558,-1.463359714,-44.38181305,-0.30502519,-67.87696838
28.577024,-1.156671882,-0.612955034,-0.106293604,8.800000191,1020.066406,32.53281784,239.5326888,58.55979481,92.706745,0.235589832,-0.235343844,1.109299183,-48.07957077,-4.351758957,-64.42910767
28.699458,-0.744949937,-0.307563037,-0.205597386,8.800000191,1020.078613,32.77451706,244.5590523,63.00973819,94.34786187,0.165645778,-0.769545496,0.133747458,-50.49569321,-3.974071264,-62.05920792
28.82164,-0.907121003,-0.285852671,-0.134734973,8.764110565,1020.076172,32.88047028,254.1172054,66.3709016,106.1211409,-0.82517767,-1.221891284,-0.072114132,-52.61258316,-3.353993654,-57.68229675
28.944361,-0.672133446,-0.209866524,-0.100990973,8.835889816,1020.074463,32.62221146,265.1394573,66.90252254,126.4800634,-1.441235304,-0.914931417,-0.306991816,-55.31418991,-2.057558537,-50.88117218
29.067249,-1.234178305,-0.295019269,-0.190653607,8.764110565,1020.070557,32.65863419,268.4693043,65.51196433,137.5049859,-1.654121876,-0.815665841,-0.335397065,-57.30668259,-2.09520483,-44.09317398
29.189548,-0.861209571,-0.298155218,-0.012533487,8.692331314,1020.076172,32.36395645,267.6546335,63.05818472,144.1169642,-0.885653317,-0.192888707,-0.344865471,-58.70172501,-3.153502226,-38.83504486
29.311784,-0.895519733,-0.204559565,-0.06797006,8.835889816,1020.080322,33.17845917,260.2700925,64.34176851,136.9521504,-0.401542604,0.738375366,0.450175643,-59.1422081,-3.676347971,-36.96929169
29.440824,-1.058924913,-0.219515562,-0.283208579,8.782054901,1020.07666,32.62883377,239.5121026,65.07678566,117.0062358,-1.418022394,1.238063097,0.200637206,-58.71931839,-2.730759621,-38.91573334
29.563421,-1.035969257,-0.215897173,-0.606186867,8.782054901,1020.067627,34.70150757,220.2155478,60.73159689,103.2033934,-1.271109343,-0.430209845,-0.826227248,-58.07958603,-1.532343626,-41.68263245
29.686713,-0.899962783,-0.489688575,-0.184868917,8.764110565,1020.05249,32.61890411,222.6778446,59.27270947,115.6279719,-0.896954358,-0.343772411,-0.613035262,-58.71988297,-2.981619835,-40.85227203
29.815928,-0.910083055,-0.392474532,-0.324424505,8.889723778,1020.053467,32.87384796,224.9572154,60.01847733,119.0785289,-0.094794996,-0.070428059,0.094863087,-59.09035873,-4.319824696,-39.19220734
29.938218,-0.933038771,-0.454952031,-0.187761262,8.800000191,1020.050781,32.49970627,223.6839998,61.6825573,114.6241937,0.355412692,0.195298329,0.600354075,-59.13060379,-4.007411957,-38.86621475
30.06064,-0.900209606,-0.139911011,-0.426861614,8.800000191,1020.045166,31.6818943,219.3162168,62.90216954,104.3996532,0.283636004,-0.053629264,0.37372309,-59.33566666,-2.362564087,-39.6152153
30.183171,-0.89428556,-0.267760754,-0.294536948,8.71027565,1020.050537,32.45335388,217.9449197,63.99948724,98.78459566,0.298602223,0.125965118,0.156255051,-58.82037735,-0.555377364,-40.80548096
30.305784,-0.939703345,-0.322277814,-0.350455582,8.782054901,1020.067627,32.60897064,216.3941389,64.57601668,93.28569233,0.570742726,0.010206154,0.594245434,-58.13993454,0.463506192,-41.98892593
30.428048,-0.922424793,-0.192498267,-0.334065616,8.71027565,1020.065674,32.5659256,213.6596317,68.63394135,83.85627467,0.747588217,-0.381969333,0.487038553,-57.43640518,2.707396746,-43.23147583
30.550975,-1.068798304,-0.177783489,-0.282726526,8.72822094,1020.056396,32.4599762,220.9257782,73.13323967,84.99048905,0.519430041,-0.837674797,0.157476783,-56.90089798,4.628013134,-42.09651947
30.673381,-0.982159019,-0.213726133,-0.130396456,8.782054901,1020.066406,32.58579254,236.6954965,78.78256426,94.89118293,0.905496895,-0.794303358,0.410680413,-56.40242004,6.18646574,-39.9466095
30.796037,-0.971791923,-0.152454779,-0.057364807,8.853834152,1020.072266,32.42024231,257.4033255,81.45398785,109.0963918,0.615641296,-0.057294458,0.056989439,-56.0029068,7.544643879,-38.35093689
30.922286,-1.01819706,-0.1145823,-0.118586071,8.817944527,1020.101563,31.51303482,263.7670674,81.61552183,110.5645751,0.487359583,-0.108912572,-0.065489039,-56.08261108,8.328759193,-39.07789612
31.056181,-1.03794384,-0.050174985,-0.067729034,8.782054901,1020.105713,32.17854309,261.1889237,80.94412106,105.7984145,-0.210859388,0.288149834,-0.246916011,-55.73790741,8.419939041,-38.88589478
31.184958,-1.019184351,-0.093595646,-0.074477836,8.817944527,1020.107178,33.18839264,248.6145318,79.71437965,93.78991055,-0.278970867,0.374587268,-0.118634321,-55.89867401,8.10765934,-39.95889664
31.307154,-0.952291965,-0.153660893,-0.101714067,8.835889816,1020.114746,32.15867615,230.1927739,77.61690369,77.26322966,-0.376709312,0.528219879,-0.022117607,-55.66477966,8.555891991,-41.94343948
31.4294,-1.03078568,-0.086600095,-0.265131444,8.907669067,1020.12085,34.30750275,218.8012478,75.4350544,68.43870722,-0.63571614,0.216984034,-0.059074953,-55.24810028,7.997496128,-43.44050598
31.552069,-1.042633772,-0.211072654,-0.142206863,8.72822094,1020.125244,32.43017578,223.2051762,74.39282218,74.72254273,0.280581683,-0.187103316,-0.023644771,-55.58842087,7.715347767,-43.55203629
31.68317,-0.935507119,-0.096249133,-0.19595623,8.674386024,1020.132813,32.38051224,225.4228567,72.99442291,76.90535507,-0.300962031,0.455221474,-0.601828694,-56.09254074,7.049146175,-43.26502609
31.805951,-1.033747673,-0.147630244,-0.256936491,8.782054901,1020.140869,33.34400558,222.8616587,70.82732682,75.72915552,-0.061808273,0.041054849,-0.062434718,-56.26707458,5.737622261,-43.61224365
31.928222,-0.942912161,-0.223857626,-0.209453851,8.835889816,1020.136963,32.33746719,220.4686473,69.92865152,73.40904271,0.181316108,0.114053242,0.001095271,-56.38528442,5.106182575,-44.18258667
32.051221,-0.894779205,-0.209384069,-0.248500481,8.817944527,1020.13501,32.11232376,220.1449783,69.64591583,73.24537772,-0.170847714,0.077706762,-0.163227469,-56.44316101,4.873161793,-44.75131226
32.197815,-0.969323635,-0.052346017,-0.305624247,8.835889816,1020.136719,32.34408951,218.5130958,68.91573446,72.62749148,-0.691304862,0.060602535,-0.321136147,-56.98826218,4.48963356,-44.53741074
32.28422,-0.990798235,0.020880161,-0.307070404,8.764110565,1020.130371,32.26462555,216.8759541,68.53011564,73.29584598,-1.058434963,-0.070733495,-0.538298726,-57.2029686,3.632687092,-43.83405685
32.370912,-1.004127383,-0.076709837,-0.397697181,8.800000191,1020.127197,32.29442596,216.167964,67.78839125,77.9469316,-1.32110703,-0.253993064,-0.44422549,-57.73402786,2.485140324,-42.46597672
32.467875,-0.934766591,-0.160173997,-0.3044191,8.835889816,1020.133789,32.25138474,214.2479295,67.87830386,81.14052315,-1.10089004,-0.110134304,-0.245083421,-58.57976532,1.478502393,-41.37487411
32.55393,-0.951304615,-0.106621847,-0.266818643,8.746165276,1020.130127,30.93030167,211.0900189,67.26710438,81.22455497,-1.108525872,0.246000141,-0.486986041,-58.91665268,0.809897363,-40.1969223
32.641166,-0.936988115,-0.222410277,-0.402035683,8.782054901,1020.121826,32.38051224,209.2497337,64.83458715,84.40271712,-0.995821238,0.253025085,-0.508060932,-59.08795166,-0.491745979,-39.73113251
32.727236,-0.944393218,-0.285129011,-0.454820961,8.871779442,1020.11792,32.29111481,208.6035022,63.04389596,88.01887198,-0.572186172,0.013871345,-0.383444399,-59.07242203,-2.287561178,-39.70874405
32.809689,-0.86466527,-0.251839846,-0.515801191,8.782054901,1020.108154,32.39044571,210.1041767,62.1679242,92.59110307,-0.41397208,-0.184659854,-0.432008177,-59.52872467,-3.023931503,-38.66049576
32.892112,-0.941431165,-0.327584773,-0.422523111,8.746165276,1020.10498,32.13549805,215.4350574,61.94286947,99.53172274,0.024323728,-0.524606347,-0.631150246,-60.15359497,-4.937056065,-38.10492706
33.008083,-0.907121003,-0.247980222,-0.367327571,8.800000191,1020.103027,31.99974823,236.7026545,61.74888527,120.976092,0.495606244,-1.669978619,-1.333034515,-60.82689667,-9.539381981,-33.45735931
33.13022,-0.823690593,-0.515740991,-0.052062176,8.853834152,1020.103027,32.49308395,264.2983946,59.8688074,146.7817488,0.531036496,-1.217633009,-0.32663393,-60.03729248,-14.26854324,-25.33476448
33.253098,-0.859728575,-0.557473004,-0.020246401,8.835889816,1020.10498,30.77468491,270.7155486,59.7312952,149.9649312,0.469949931,0.578921676,0.088143565,-59.15072632,-15.82418633,-19.93667221
33.37554,-0.952785611,-0.583042979,0.121604726,8.907669067,1020.104248,32.30435944,272.7427351,61.46107476,146.4902637,0.797068298,0.243862107,0.308360487,-58.45968628,-15.0821209,-18.06846237
33.498079,-0.866393149,-0.439272344,0.025831865,8.835889816,1020.116699,31.33424187,273.3211292,62.45042766,139.3159832,0.67214632,0.518751442,-0.052660868,-58.69799042,-13.21403885,-18.29858589
33.620353,-0.919709623,-0.397781521,0.001462181,8.907669067,1020.133057,32.20171738,272.4889594,62.49607381,130.9902148,0.943981349,0.629012644,-0.108249612,-59.10024643,-11.89593601,-20.61151314
33.74319,-0.951551437,-0.368351936,-0.063149489,8.72822094,1020.137207,32.29111481,269.937351,62.3906635,120.6372053,0.664205074,0.621071398,-0.107944176,-59.85982132,-11.30681801,-23.61400414
33.871282,-1.03794384,-0.306356877,-0.050374974,8.746165276,1020.143066,31.8805542,265.3040239,63.57636385,110.5172214,0.274778485,0.477518052,0.164501727,-60.72354126,-10.72142315,-27.3479805
34.00467,-1.022146463,-0.319141865,-0.020969488,8.817944527,1020.152832,32.40699768,260.9933481,65.35187153,104.5086972,-0.053862594,0.0190436,0.148824126,-60.83930969,-9.63817215,-29.42153931
34.126473,-0.963399529,-0.34471181,-0.019764345,8.817944527,1020.140381,32.19178391,262.0943404,66.05991626,106.6203458,-0.176544622,-0.438414127,0.023864925,-60.89482498,-8.790205956,-30.2330513
34.248994,-1.012272954,-0.412013829,-0.040251777,8.907669067,1020.14209,32.49308395,267.6468607,66.69661283,113.6644906,-0.12736997,-0.366637468,0.105415434,-60.99682617,-8.157193184,-29.48468208
34.371435,-0.867133677,-0.353154719,-0.006025715,8.764110565,1020.136475,32.33415604,271.3279707,67.2171074,119.3666399,-0.083082236,-0.235301435,-0.021033671,-60.78163528,-7.428235054,-27.64046478
34.493914,-0.893298209,-0.398987621,-0.016872002,8.800000191,1020.142334,31.97657204,272.6763798,66.43782379,121.758258,-0.004208676,0.104688123,-0.019779265,-60.44015121,-7.18915987,-26.95316696
34.616416,-0.950070441,-0.411772609,0.022907503,8.782054901,1020.137451,29.77807999,270.8302821,66.24926959,120.2661485,-0.013835252,0.029133517,-0.034489729,-60.61020279,-7.122200489,-26.54599762
34.738903,-0.912551343,-0.379689574,0.020470535,8.800000191,1020.120605,32.25138474,270.5925027,65.72857695,118.5031127,0.25738892,0.303106606,-0.068698183,-60.62619781,-7.515257835,-27.15362549
34.86824,-1.021652699,-0.335303992,-0.011328343,8.835889816,1020.093994,32.24145126,268.659286,65.98048116,115.2242531,-0.001864319,-0.013864294,-0.040744171,-60.40933609,-7.48596859,-28.13510513
35.00028,-0.976481795,-0.357014328,-0.047964688,8.871779442,1020.088867,33.77112198,268.5335354,66.40258685,115.5897229,-0.19573763,0.016716933,0.049750976,-60.52453995,-7.469554424,-28.61281395
35.122665,-0.926867902,-0.379207104,-0.057364807,8.800000191,1020.093994,31.76798058,267.0101641,66.45812311,116.1949459,-0.360365808,-0.147605821,-0.05989933,-60.38528061,-7.880157948,-28.69858551
35.245155,-0.962905884,-0.396092921,-0.021451544,8.817944527,1020.101318,32.28118134,265.9598586,66.49150908,117.9626945,-0.405875266,-0.067887902,-0.023247415,-60.15837097,-8.006842613,-28.51968002
35.367251,-0.964633763,-0.425522476,-0.026272114,8.925613403,1020.107666,32.98973083,265.1917765,66.27717774,120.5353672,-0.437029392,-0.220298782,-0.077919856,-60.25772476,-8.376497269,-27.02612877
35.49662,-0.897988141,-0.395851701,-0.015425829,8.925613403,1020.108887,32.22820663,263.7120912,66.12666086,121.3101429,-0.325241059,0.075970866,-0.02141482,-60.24382401,-8.804555893,-25.85524178
35.61936,-0.920203269,-0.326861084,-0.070621379,8.817944527,1020.115479,32.30104828,259.9123272,65.88523417,118.7033602,-0.294697791,0.135224789,-0.150612816,-59.92015076,-8.995752335,-25.71644592
35.742061,-1.051026225,-0.359185368,-0.071103431,8.800000191,1020.104248,31.89710808,257.4347922,64.14119317,117.615598,-0.290421754,-0.120116882,-0.314935565,-60.17398834,-10.37456512,-25.66382217
35.864484,-1.045595884,-0.352431029,-0.002410286,8.907669067,1020.107422,32.25469589,259.5533666,63.93034524,119.6203131,-0.052508451,0.009529092,-0.005439344,-60.17368317,-11.36262321,-25.23057365
35.986876,-0.986108422,-0.270896673,-0.130878523,8.853834152,1020.109863,31.69845009,259.5553952,64.59542125,118.8850842,-0.298356533,-0.238974705,-0.232311323,-60.13137054,-11.67354012,-24.83570671
36.112891,-0.990057826,-0.216862082,-0.14172481,8.835889816,1020.121582,32.12887573,262.2502053,64.12812019,123.220137,-0.779412925,-0.572507143,-0.369450569,-59.7571907,-13.09526825,-24.01708031
36.23564,-0.957475483,-0.164274842,-0.1255759,8.853834152,1020.119629,33.19501495,264.141553,62.79141119,129.0623393,-1.499317527,-0.761875331,-0.602801085,-59.23017502,-16.32713509,-20.92980194
36.358271,-0.964139998,-0.253528416,-0.207525611,8.907669067,1020.111816,31.83088875,266.8799944,60.04363292,140.1191452,-1.717396379,-1.191619158,-0.63242805,-57.60601807,-20.45566368,-18.07164764
36.481076,-1.001412272,-0.640454769,-0.14076069,8.817944527,1020.110352,32.26462555,265.452116,60.67071942,153.2091481,-1.922952533,-0.499814153,0.317161977,-55.97442245,-24.88586426,-14.47890568
36.605549,-0.8009817,-0.547341585,-0.259587795,8.907669067,1020.125244,31.74480247,254.5385529,60.66349308,157.2673733,-2.1834867,-0.627179563,-0.368228853,-54.71744537,-28.7631855,-14.55215645
36.727993,-0.683981597,-0.40381217,-0.013738629,8.835889816,1020.127686,33.31420898,254.3269946,59.0903844,167.3282282,-1.444034219,-0.925281823,-0.515141904,-52.27384186,-33.92573166,-14.15062046
36.854242,-0.82788676,-0.318900645,-0.235243902,8.800000191,1020.129395,32.0626564,256.0729617,57.87157129,168.7075986,-1.462665677,-1.345862627,-0.17061393,-48.66218948,-38.69616318,-14.82289219
36.983548,-1.178640246,-0.362803757,-0.217648819,8.853834152,1020.139404,32.84404755,264.3526537,58.03075568,175.4776138,-1.152651548,-1.518126607,-0.404269874,-44.76563263,-43.32585144,-14.3150425
37.133474,-0.873057723,-0.395610452,0.156209692,8.692331314,1020.113037,31.74811363,265.7619266,61.81397697,174.225927,-0.588212073,0.301946461,0.962541103,-41.56195831,-46.67084503,-14.71709156
37.274369,-0.924646378,-0.006030648,0.08090736,8.72822094,1020.097168,32.7414093,259.6854556,66.01349146,158.3506686,0.106036268,-0.027309902,0.674212694,-43.19501877,-46.48881912,-16.67154884
37.396318,-1.081633806,-0.361115158,-0.232833609,8.835889816,1020.066895,31.47330284,261.1068112,71.82879648,144.7083493,0.251422197,-0.15620248,0.605490386,-45.99385452,-44.18494034,-16.11522102
37.518865,-1.033007145,-0.566157222,-0.088698521,8.871779442,1020.040039,31.2779541,265.0098681,73.94161988,138.5103351,-0.040265955,-0.183996841,0.136956722,-48.06705093,-41.44380951,-14.36669827
37.641711,-1.041893363,-0.378000975,-0.015666857,8.800000191,1020.022705,31.50310135,262.9433261,72.34476946,125.2522412,0.734922051,0.290034592,-0.292786956,-49.18556976,-38.73669052,-13.87471867
37.764616,-1.022640109,-0.365457237,-0.041697945,8.782054901,1019.973389,31.7050705,256.1611463,73.13706458,107.1789801,-0.152970582,0.875854373,0.637866259,-50.52549744,-36.96109009,-14.09739208
37.887761,-0.796785474,-0.136292636,-0.008436001,8.817944527,1019.90918,30.37405777,224.4188872,74.24856175,69.82034521,-0.206421301,0.782697439,0.779281557,-53.54988861,-33.27531815,-18.47023964
38.014618,-1.148279428,-0.125678688,-0.255249292,8.871779442,1019.844971,30.9733448,207.7770903,76.37200609,43.89284466,0.365043133,-0.011427406,0.574336231,-56.08800888,-28.98157883,-20.81129837
38.140034,-1.100146413,-0.239054859,-0.365158319,8.782054901,1019.786377,30.50318527,196.7785323,76.05538584,21.35334847,0.922152221,-0.304948151,0.106108025,-57.44115829,-24.28221703,-22.14799881
38.262209,-0.657076478,-0.061030149,0.000974787,8.782054901,1019.719482,30.37405777,231.7045133,78.65708686,47.60927695,0.61794132,-1.057839632,-1.024298072,-57.34196091,-22.48775482,-19.08544159
38.384318,-0.628196716,-0.072609,-0.064836696,8.907669067,1019.701904,31.1488266,274.7563022,71.4358557,83.23247349,1.086475015,-0.704454005,-1.724349618,-54.99777603,-23.70677185,-14.59368706
38.512224,-1.291444182,-0.531903148,-0.071585491,8.835889816,1019.684814,30.99983215,276.2425582,62.8510524,75.10385853,0.988125682,1.192282557,-0.50658983,-52.41458893,-26.0465889,-11.82629585
38.634914,-1.107798457,-0.628152251,-0.038323548,8.853834152,1019.672119,30.22175217,265.897861,64.80172711,52.20866145,1.280730247,1.27261126,0.108856916,-53.11480713,-25.43490028,-14.54012585
38.757315,-0.883671582,-0.426487386,0.072377965,8.817944527,1019.64624,28.73512268,262.7750644,65.25097597,35.57764259,1.263015151,0.357229769,-0.252469897,-54.68117523,-23.61413956,-17.30656052
38.879306,-0.758279085,-0.352189809,0.043621738,8.853834152,1019.608398,27.31802177,265.9038921,66.42904017,33.53490035,0.632296681,0.74757266,0.813184559,-55.74616623,-21.7184391,-19.50647354
39.002022,-1.035722375,-0.330720723,-0.22632584,8.764110565,1019.564697,29.05297661,239.2543722,73.81882674,8.211561632,-0.131284863,1.160822988,1.659232974,-57.2739563,-16.80438614,-24.97991371
39.12425,-1.095456719,-0.314076126,-0.65053618,8.746165276,1019.544678,30.07275772,206.215791,74.94321931,324.2338203,1.425810695,-0.351984769,0.280510068,-57.71479034,-11.19373322,-29.63864136
39.247737,-0.835538685,-0.341575861,-0.241751671,8.853834152,1019.554199,30.89388084,216.3993981,77.81568952,320.8644948,1.737657428,-0.297923207,0.211787716,-57.7227478,-8.232051849,-31.37199593
39.370132,-0.620544851,-0.334821522,-0.222951442,8.871779442,1019.565918,31.0196991,222.7371033,80.93954483,320.6351234,1.227279425,-0.614045978,1.05447638,-57.53314209,-5.623303413,-32.55509186
39.497534,-0.759019613,-0.63876617,-0.499411225,8.889723778,1019.586426,30.09924507,223.3864221,81.76670123,303.3683232,2.981073618,0.422897786,-0.48337692,-57.20878601,-2.162458658,-34.0345192
39.619745,-1.111007214,-0.564468622,0.065067053,8.800000191,1019.607178,31.95339584,238.5019449,76.66584083,314.5501557,2.18725419,1.179148912,-0.493456185,-56.62461853,-2.887907743,-39.20068741
39.742098,-0.76864624,-0.449645072,-0.181976587,8.782054901,1019.642822,32.28449249,243.0514383,70.94685514,310.9260334,2.927928209,1.016047835,-0.311418355,-55.85461807,-6.466803074,-46.85040665
39.871661,-0.987589419,-0.335786462,-0.193304926,8.835889816,1019.694092,32.11232376,245.2809077,66.08243539,302.9114553,1.917251825,1.096376657,0.338847697,-54.13171005,-11.43958855,-53.81341934
40.003854,-1.227760434,-0.181643113,-0.283931673,8.907669067,1019.757324,32.75796509,243.0936625,65.45353206,298.2948075,1.398932576,-0.224924818,0.282342672,-52.23456573,-15.99007607,-58.47491837
40.125336,-1.180121303,-0.180678189,-0.210658997,8.907669067,1019.818848,31.8044014,244.1493366,67.57856784,300.4738769,0.546164691,0.336154938,0.440862179,-51.59433365,-18.51206779,-59.74050903
40.247514,-1.010545135,0.114840887,-0.362024933,8.925613403,1019.898682,32.66194534,232.4868296,69.1155858,297.0380048,-1.272686481,-0.450639516,0.092974424,-51.12934113,-17.17404938,-60.87637711
40.369905,-0.929583073,-0.071885318,-0.183904812,8.835889816,1019.94873,31.76466942,230.2532074,71.16045564,313.6652124,-1.691740036,-0.557235479,-0.397550344,-52.51803589,-14.79239845,-59.18959808
40.492245,-1.061886907,-0.204800799,-0.132806748,8.907669067,1019.99292,32.31098175,228.8465573,72.93538275,330.63548,-1.619963408,-0.357482553,-0.033780117,-54.34030533,-12.0895462,-56.32851028
40.616804,-1.036462784,-0.297672749,-0.168478981,8.800000191,1020.032959,32.18847656,237.8835806,74.54505343,357.8380818,-1.202437043,-0.8501454,-0.718254626,-56.00188446,-9.609890938,-51.57064438
40.739044,-1.042880654,-0.539139867,0.021201627,8.853834152,1020.060791,30.72171021,256.643788,74.4824889,31.58077982,-1.582089782,-0.348930448,-0.188329026,-57.77829742,-9.821717262,-45.6634407
40.860994,-0.862443745,-0.151731089,0.163033187,8.782054901,1020.077148,31.65871811,253.2224643,75.9046504,43.34932211,-1.300786376,-0.107027814,0.249661371,-59.30004883,-9.41673851,-41.80513763
40.983801,-0.857013345,-0.021951558,-0.092072919,8.907669067,1020.063477,30.87070465,256.6413701,77.06661584,55.92901085,-0.493222535,-1.319289923,-0.259494841,-59.4797554,-9.558335304,-38.51630783
41.105903,-1.093235016,-0.583525479,0.087974563,8.853834152,1020.040527,31.86730957,294.3412344,77.35316277,101.4697957,-0.60898149,-0.379473716,0.653748751,-59.25024414,-9.425032616,-31.84824562
41.228182,-1.011779308,-0.23037073,0.096991345,8.853834152,1020.033447,32.30104828,284.1996876,80.22838554,98.63562924,-0.524682105,0.509029806,0.060293131,-59.00409698,-8.153491974,-28.47866821
41.350773,-1.249728799,-0.434206605,-0.102919206,8.764110565,1019.990234,31.30775452,288.762131,77.89039812,105.8121978,-0.101963349,-0.662304342,0.045937799,-59.04592514,-8.277755737,-27.35054398
41.479336,-0.777038634,-0.40236479,0.204461664,8.853834152,1019.963135,31.25808907,309.636381,75.99016437,128.1909711,0.53333652,-0.5984689,0.1855205,-58.84758759,-7.659819603,-24.05208015
41.601994,-0.765437365,-0.409360349,-0.248500481,8.835889816,1019.95752,31.64216232,312.5033665,72.17674681,124.1289893,1.646638513,0.233834982,-0.60921514,-58.41613007,-6.944958687,-22.36762428
41.72483,-0.879475415,-0.23398912,0.506402016,8.889723778,1019.941162,31.68520546,300.5497466,73.6379565,100.8289328,2.098067999,2.434782505,-0.763764083,-58.97510529,-7.567198277,-26.90190315
41.847265,-1.274165511,-0.772405326,-0.020246401,8.907669067,1019.938721,31.37066269,273.6801786,71.77512486,64.2666296,1.551954389,0.607379079,-0.261021972,-58.74397659,-10.31821251,-35.43016815
41.969705,-0.976975501,-0.427934736,0.046546098,8.764110565,1019.953369,31.956707,270.1435408,73.03655834,53.01158434,1.334180951,1.037428141,0.698341906,-58.53997803,-11.9746933,-41.00118637
42.091711,-0.519342184,-0.193704396,0.02242011,8.907669067,1019.955566,30.96672249,265.8611624,76.88577975,43.34211968,1.263931394,-0.010511108,0.256075442,-58.2726059,-11.68657303,-45.90771866
42.219892,-1.070773125,-0.285129011,0.265385866,8.907669067,1019.979492,31.59249878,272.6764823,81.20122987,45.06461484,1.045547128,1.366684556,0.741713345,-58.03629684,-11.13006401,-48.4966011
42.342138,-1.654292583,-1.120011926,-0.686931491,8.997392654,1020.014404,31.14220428,258.8182333,81.17675047,28.50555374,0.007381535,-0.266463637,0.327546656,-57.07887268,-11.2104435,-52.11952209
42.465991,-0.67879802,-0.153178439,0.190814629,8.961503029,1020.034668,31.98319435,289.2260306,81.03075518,62.56630182,0.424297065,-0.741105914,-0.101280726,-57.44490433,-11.17503738,-51.52739716
42.587909,-0.43813327,-0.256664336,0.183260024,8.835889816,1020.064453,31.77460289,299.5823118,77.19328853,70.0966127,1.529046893,0.759179115,-0.7268067,-57.75187302,-13.10739326,-50.69822693
42.72882,-1.240102291,-0.768786967,-0.000723086,8.853834152,1020.09375,32.21165085,271.6713858,74.62814951,32.3905568,2.288963318,1.760387182,0.150395751,-55.98139572,-18.89127922,-53.80144119
42.851147,-0.874045014,-0.40670687,0.066772938,8.943558693,1020.119629,31.94677353,246.2717974,74.81258511,1.058731722,1.44566381,0.69961977,-0.086925395,-52.55282593,-22.64676476,-58.3707695
42.97997,-0.583519459,-0.132915467,0.129159331,8.961503029,1020.144287,29.09932899,256.9490291,74.07847638,6.245823798,1.460935473,0.497423351,-0.297368467,-50.64417267,-27.08675575,-59.58087158
43.102423,-1.107304692,-0.351707369,-0.075200923,8.907669067,1020.140137,31.65871811,249.2989304,72.85090697,356.3228328,0.427962244,0.457411677,0.58777529,-48.74782944,-30.81504822,-60.60931396
43.224611,-1.250962973,-0.398987621,-0.265613496,8.817944527,1020.145752,33.21818924,249.8360155,73.07801759,358.8723811,0.629242361,-0.183385983,-0.114414327,-48.34809113,-32.53984451,-60.79439545
43.353568,-0.831342459,-0.371246666,-0.127022058,8.925613403,1020.154053,31.48323631,252.2694684,70.60518175,6.285747534,-0.465428174,0.184354901,-0.23841998,-47.29568481,-34.07698059,-60.44421768
43.476275,-0.590924561,-0.383066744,0.256125391,8.925613403,1020.148438,32.82418442,247.2160437,68.71579433,7.010500615,0.465225041,1.440293789,0.056933373,-45.46068192,-34.19267273,-61.65137863
43.598807,-0.847386777,-0.671572924,-0.263444245,8.782054901,1020.125488,31.73487091,227.9886309,63.49573347,340.1026686,2.311565399,2.65988636,0.07037241,-41.11234283,-36.29997253,-64.92024231
43.721094,-1.240349174,-0.910145283,-0.536047578,8.907669067,1020.085693,33.02284241,220.7566627,60.11001553,325.0892059,1.165887475,-0.224924818,0.925889194,-36.21945953,-39.31288528,-65.65145111
43.842837,-0.620544851,-0.477144808,-0.253321052,8.889723778,1020.065186,31.49316788,223.2470179,61.63508749,323.3823791,1.076701164,0.138540015,0.412151515,-35.5217514,-42.44065475,-64.36920929
43.966022,-0.549209297,-0.223133951,-0.274531543,8.782054901,1020.04541,31.61236382,235.7514414,63.03235977,333.8585574,0.354658425,-1.300658584,-0.126631632,-35.60893631,-45.39590836,-60.02047348
44.088102,-0.872070313,-0.81148392,-0.480128944,8.800000191,1020.043701,31.60243034,248.0435894,64.30939341,353.3624132,-0.143502176,-0.384055197,-0.673355997,-37.61355209,-46.59771729,-56.63322067
44.210639,-0.412462384,-0.243396938,-0.616069019,8.925613403,1020.04248,31.41701698,238.3015745,60.81703573,340.7515468,-0.544840634,2.125684738,-0.910066307,-37.4083786,-48.00270462,-54.60146332
44.333268,-0.678551197,-0.214691058,-0.102919206,8.889723778,1020.033691,31.63885117,229.9731697,53.06882815,340.6664734,-0.086997144,-1.058145046,-1.295216799,-35.02865601,-48.65078735,-56.34601212
44.462092,-0.996228695,-0.689423621,-0.195474178,8.871779442,1020.005615,31.29450989,240.6718004,53.35314161,354.2774135,0.366570294,0.611655176,0.189185694,-32.87692642,-49.99211502,-56.37326813
44.584734,-0.708665133,-0.605235755,-0.604740679,8.943558693,1019.977051,30.42041016,246.5885679,49.01339309,0.994793467,0.414828658,-2.067599773,-0.923199892,-31.92028236,-51.5246048,-54.3406601
44.707418,-0.706196785,-1.0396837,0.574637175,8.961503029,1019.965576,31.31437492,252.7124335,44.3837167,15.90678145,-0.715577483,0.134569392,-0.421374142,-29.14637756,-52.6733551,-53.74308777
44.829848,-0.515886486,-0.756243169,0.049226761,8.979447365,1019.946777,29.10264015,248.7487313,40.69772315,18.85554487,-0.135255501,0.402128369,-0.270490408,-26.60290909,-52.45349121,-55.57673645
44.95945,-0.654114485,-0.788326263,-0.163899437,8.817944527,1019.967773,32.13549805,253.6685712,39.69866455,27.29504785,0.01837711,-0.584419012,0.047464959,-24.63623047,-53.11605835,-56.0970192
45.081495,-0.711874008,-0.798698962,-0.27766493,8.979447365,1019.967285,31.52296829,248.3340501,41.39854837,28.44655969,-0.99993521,-0.052660812,0.452774048,-24.44035912,-52.45331192,-57.53099823
45.20424,-0.488734573,-0.678085983,-0.074718863,8.889723778,1019.969238,30.68197823,246.5710963,41.66065005,35.48265857,-0.084859118,-0.264325619,-0.408545971,-25.62028885,-50.60571289,-60.66490555
45.326769,-0.814804494,-0.655410767,-0.37865591,8.817944527,1019.956055,31.22166824,248.6910777,40.21964747,40.80743989,-0.327067196,-0.135738492,-0.37922442,-25.78760529,-50.06167221,-61.41585159
45.449176,-0.611658692,-0.677362323,-0.16365841,8.907669067,1019.954834,31.32761955,246.9067932,36.99496149,40.0321622,-0.263231784,0.440612882,-0.300117373,-24.48886871,-49.95882034,-61.86925507
45.571463,-0.583766282,-0.539622307,-0.184627905,8.889723778,1019.947266,31.77460289,248.1103682,37.7513503,47.00788221,-0.300494552,-0.737440765,-0.388081968,-24.29845238,-49.21656036,-62.98755646
45.694391,-0.62943095,-0.593898118,-0.238859326,9.03328228,1019.963135,31.42363739,249.7397576,37.49379411,50.76418231,0.227598459,-0.584419012,-0.366090834,-24.59499931,-49.15849686,-63.20824814
45.817137,-0.499595344,-0.903149724,0.026075564,8.907669067,1019.988281,31.48654747,252.2471201,34.50169655,53.36562036,0.339692205,0.839813352,-0.451306522,-23.89334297,-50.13253784,-62.5394516
45.944762,-0.493918151,-0.941745877,-0.188725382,8.943558693,1020.011719,30.92036819,252.8884065,28.70317672,48.57693375,0.881529689,1.314455509,-0.385027647,-19.9425106,-52.19963455,-60.5981102
46.067883,-0.369759798,-0.911833942,-0.248741493,8.871779442,1020.038574,31.35079575,255.4510389,23.37708912,43.7467196,0.496379167,1.013909817,-0.224064648,-15.0034771,-53.79078674,-58.60146332
46.190177,-0.383335769,-0.799663842,-0.161248118,9.03328228,1020.072754,30.50649643,255.3013211,21.67702772,40.75055125,-0.214973405,0.514222145,0.043799769,-10.7091713,-54.95098495,-56.48965073
46.312391,-0.437145919,-0.951394975,-0.254767209,8.961503029,1020.092773,31.44681549,252.9235205,22.7787304,41.66864137,-0.157552078,-0.069765031,0.115576431,-9.052282333,-54.9428978,-56.68332672
46.435667,-0.420854807,-0.943675697,-0.345876038,8.925613403,1020.115967,32.20833969,252.4716079,24.17192507,42.16804773,-0.055528179,-0.077491127,0.183991268,-8.866057396,-54.6413765,-57.29554367
46.557894,-0.400367409,-0.973346472,-0.241992712,8.925613403,1020.133057,31.26140022,251.4263431,25.71437986,46.56334276,-0.142271042,-0.369790167,0.133289456,-9.535792351,-54.46087646,-58.71683121
46.68021,-0.453930765,-0.80931288,-0.233315662,8.997392654,1020.137695,30.34756851,251.0442691,27.22965562,46.80776108,0.077335015,0.188235253,0.071897507,-10.68020153,-53.91689682,-59.48310852
46.808582,-0.417892754,-0.662647545,-0.24729535,8.961503029,1020.156494,33.74463654,251.7378134,27.87154826,46.992405,0.246544674,0.079806671,-0.097006738,-11.63342667,-54.03557968,-59.13580704
46.93136,-0.618570089,-0.947294116,-0.341537535,8.835889816,1020.168945,31.71169281,253.4817382,27.95523003,47.79220308,0.118262984,-0.047558732,-0.015150794,-11.84558296,-54.68552399,-59.04069901
47.054038,-0.455905437,-0.75141871,-0.2149975,8.889723778,1020.172363,31.90373039,253.125981,28.03857712,48.26549762,-0.123935841,0.300905019,0.091833293,-11.79735661,-54.58940887,-58.63316345
47.176267,-0.502310514,-0.86889571,-0.254526198,9.069171906,1020.166016,31.64216232,251.1569058,28.40301211,46.80552419,-0.105036117,0.017170053,0.140439853,-11.769063,-54.58912659,-58.54954529
47.299029,-0.472690284,-0.882645547,-0.333583564,8.853834152,1020.15918,31.14220428,251.2912351,28.42279575,50.12490392,-0.215908155,-0.464802623,-0.183624163,-11.9986496,-53.70775223,-59.50214005
47.421326,-0.48577258,-0.791462183,-0.24440299,8.817944527,1020.143799,30.40716743,251.160717,28.79906233,53.01954492,-0.074798286,0.04954591,0.169455945,-12.69976139,-53.21912766,-60.73129654
47.549306,-0.483797848,-0.826922357,-0.214515448,8.961503029,1020.139648,31.37397385,249.5980039,29.69660042,48.92609644,0.328678221,0.83725667,0.33011353,-12.78780842,-52.54162598,-60.9527092
47.673638,-0.389259845,-0.849356413,-0.276700824,8.961503029,1020.130127,31.38721657,250.6498803,28.61819039,46.00052493,0.617922843,-0.203046873,-0.123453923,-12.49110508,-53.11467361,-60.04924011
47.795912,-0.476639628,-0.882886827,-0.248500481,8.889723778,1020.114746,31.88386536,258.052897,27.21935398,51.28071878,0.893728554,-0.503287077,-0.356193572,-12.40646553,-54.38022995,-57.11088943
47.918504,-0.486019403,-0.884334147,-0.275736719,9.03328228,1020.120117,31.13227081,262.5389721,25.18048788,52.31528412,0.088913597,0.306414753,-0.055647887,-11.42917728,-56.37399673,-53.26207352
48.040845,-0.500582695,-0.625739992,-0.177638069,8.943558693,1020.132813,31.22829056,260.7174289,26.48638931,48.93098344,0.164660886,0.110937871,0.173121139,-10.93153286,-57.20082092,-51.72471619
48.163788,-0.614373982,-0.854422152,-0.201740935,8.925613403,1020.130371,31.40708351,260.9052386,29.11762577,49.53915031,-0.082739539,0.048935045,0.478859216,-12.11510849,-57.57018661,-51.12459946
48.290408,-0.422335774,-0.81220758,-0.144858181,9.03328228,1020.126709,30.48332024,256.9899966,31.31852104,50.0092415,-0.465446621,-0.143182069,0.00666037,-13.66437912,-57.06041336,-52.51316833
48.413827,-0.484044731,-0.885299027,-0.161971211,8.943558693,1020.126953,30.88063812,255.9532968,30.78370016,52.28364668,-0.192084417,-0.032310031,-0.21783261,-14.57436657,-56.31288528,-54.52324295
48.536293,-0.516627014,-0.804247141,-0.083154865,8.782054901,1020.13501,31.43688202,255.7143631,29.53493325,53.99980001,0.018350407,0.080544934,-0.131889552,-14.63693619,-55.72839737,-55.35962677
48.658568,-0.534152329,-0.783019245,-0.246331215,9.051226616,1020.150635,31.04618645,256.2571651,29.48780495,54.09065519,0.220396101,-0.117667206,-0.080171347,-14.26866531,-55.48126984,-55.54610443
48.781478,-0.599563777,-0.851768613,-0.217407778,8.961503029,1020.171631,30.38068008,257.9703473,30.12803956,55.70794836,0.111710437,0.002064297,0.105085336,-14.39847183,-56.04527664,-55.46677017
48.903563,-0.45343709,-0.792427063,-0.223433495,8.835889816,1020.176758,31.50310135,256.9544113,30.1182519,55.24576312,-0.205023199,-0.074599288,-0.122461967,-14.57463169,-55.90990829,-55.55249405
49.025988,-0.56031692,-0.886263967,-0.201981947,8.889723778,1020.190918,31.16538239,256.0087238,29.31848456,56.47765604,-0.026502935,0.199926838,-0.000284061,-14.33405495,-55.14583588,-56.15876389
49.148744,-0.500335872,-0.823786438,-0.207043558,9.03328228,1020.202881,31.25808907,255.1402653,29.04900286,55.72707972,0.006074517,-0.074303247,-0.082861595,-13.79191494,-55.20491409,-57.12666702
49.271181,-0.585247338,-0.901219904,-0.257900596,8.907669067,1020.189209,30.91374779,256.4559236,28.88607553,57.06208118,0.018284695,-0.104285575,0.041954048,-13.66736794,-55.15463257,-57.2865181
49.393598,-0.509221971,-0.802076101,-0.124852806,8.907669067,1020.183594,31.26471138,255.0747774,30.54431227,56.64093513,-0.044634424,0.395707637,0.372432142,-14.31337261,-54.87970352,-57.39165115
49.519921,-0.664728403,-0.814861059,-0.321291119,8.853834152,1020.19458,31.24153519,251.9552388,34.40352966,51.22251532,-0.15611732,0.217334971,0.733758926,-15.65366173,-54.90547562,-58.20029068
49.642029,-0.565006793,-0.682910562,-0.234761849,8.979447365,1020.193359,29.1754818,249.7724674,38.32406849,48.33116306,0.094337419,0.229552269,0.518123507,-18.17704201,-54.23717499,-58.4974556
49.764885,-0.633380294,-0.801593661,-0.301526755,8.889723778,1020.188477,31.50641251,248.210007,41.18281685,44.95696082,0.118161164,0.111044429,0.394423306,-20.73851967,-53.52806473,-58.153862
49.88701,-0.639057517,-0.690388501,-0.207043558,8.925613403,1020.173828,32.29111481,248.7381923,43.65997619,44.47191152,0.45963484,0.326679856,0.255146027,-23.31352615,-53.56364441,-58.32780075
50.016172,-0.76593101,-0.542275786,-0.400830537,9.051226616,1020.165527,30.95678902,249.4619602,41.43951585,35.51870148,0.881742716,0.085388087,-0.119925238,-23.94193459,-54.23822784,-55.07055664
50.1417,-0.787652552,-0.857799292,-0.260069847,8.997392654,1020.142822,31.33093071,248.0541147,46.68536409,32.50542009,-0.372363627,0.377381653,1.305834174,-26.01807213,-54.33496857,-53.05888367
50.263994,-0.636342347,-0.600893736,-0.275495648,8.907669067,1020.148926,30.92036819,238.7504955,50.45663255,24.8380239,-0.792028069,0.86179781,0.689165771,-29.22607803,-52.95858002,-54.34310532
50.386131,-0.654361308,-0.3454355,-0.354553074,8.979447365,1020.148682,31.7812233,220.3148041,47.78412638,11.02552615,-1.505824089,1.674859405,0.254229724,-29.83374786,-48.99182892,-60.83393097
50.514237,-0.485032052,-0.099385075,-0.694162309,9.01533699,1020.139404,31.02632141,204.5323133,38.53813686,359.4977191,-0.464298844,1.072240829,-0.428412169,-26.55677986,-43.78784943,-69.83169556
50.636796,-0.544025779,-0.11313495,-0.67729032,9.03328228,1020.13623,31.48985672,206.7693915,37.73456169,3.60157369,0.710395038,-0.843432486,-1.329438448,-23.93594933,-41.22911072,-73.19033813
50.759094,-0.720019579,-0.52273649,-0.800696969,8.925613403,1020.137207,31.44350433,216.6464461,42.05222821,14.34861211,-0.168029204,-1.359919071,-0.139778361,-23.75545311,-41.82811737,-72.48448181
50.881331,-0.717304409,-0.455434501,-0.43939513,9.01533699,1020.132568,31.13889313,216.5004713,46.35382329,17.91336126,0.12029919,-0.055416353,-0.035625838,-25.26255417,-41.39502716,-71.57536316
51.003869,-0.587962508,-0.46218881,-0.61631012,8.961503029,1020.143799,31.3243084,224.196182,44.15751791,19.28773875,0.519194186,-0.094511732,0.092961296,-25.39145851,-43.67936325,-69.04845428
51.125839,-0.7758044,-0.485346496,-0.494349629,8.925613403,1020.134277,31.44350433,220.9040035,48.27878575,16.24124899,-0.650612772,-0.246617168,0.641212821,-26.75697708,-44.19877625,-68.21452332
51.248561,-0.744703174,-0.178024709,-0.435056597,8.979447365,1020.144531,30.90050316,214.252014,52.40974222,13.41265592,-0.09167105,-0.834269524,0.203833342,-29.43365479,-42.03451538,-68.7567215
51.370782,-0.561797917,-0.388373703,-0.075200923,8.961503029,1020.163086,31.51303482,223.882048,61.57722895,20.96522468,1.603785515,-0.988818407,0.53706032,-34.28268051,-41.59233475,-65.75733948
51.493209,-0.824924767,-0.388132483,-0.445902884,8.979447365,1020.166992,31.20842361,229.231698,63.34383006,15.62106098,1.747644305,1.044446468,0.864484072,-38.15167999,-42.80111313,-61.65848923
51.615738,-1.396842957,-0.556990564,-0.700670063,9.03328228,1020.163818,31.40708351,222.4870638,56.57175897,2.140991311,-0.814935505,1.611329436,-0.36854738,-38.13942337,-44.59072876,-60.95109558
51.737792,-0.900456429,0.050743647,-0.324906528,8.979447365,1020.185303,33.71814728,197.6688474,58.51383447,336.8486947,-0.251106888,1.02062273,2.757555485,-37.63257599,-42.22746277,-63.75821686
51.860042,-0.54501307,0.129408449,-0.685726345,8.907669067,1020.204346,31.13889313,179.3550302,57.59852082,316.141962,-0.273403466,-0.554187775,0.398088485,-39.47079086,-37.22937775,-66.52401733
51.988534,-0.899222255,-0.085876413,-0.667649209,9.087116241,1020.209473,31.06274033,176.7935454,57.79857706,315.3282508,-0.443529427,-0.985458672,0.189783439,-41.4932251,-34.07058334,-67.87237549
52.110694,-0.249303997,0.062640481,-0.389743239,8.943558693,1020.2229,30.6455574,173.9146753,65.41205232,312.5131303,-0.045856155,-1.12320888,0.08349289,-44.75720596,-32.61800766,-65.33443451
52.233421,-1.819425583,-0.135810181,-0.447831124,8.925613403,1020.218994,31.18524742,170.5218744,65.04658939,309.6251043,-0.28042841,-0.205078349,0.246593907,-46.36414337,-31.08745766,-64.29373169
52.355735,-0.651152432,0.209044397,-0.40902552,8.943558693,1020.224609,31.22829056,166.0238943,68.78526419,305.8059904,-0.194296405,-0.740501702,-0.362744153,-47.76580429,-30.01153374,-63.02708435
52.478346,-0.805918396,-0.002894711,-0.331655324,8.853834152,1020.2146,31.81102371,169.1766414,66.19544087,310.7273603,-0.332046539,0.953733027,-0.192923635,-48.05422211,-29.24583626,-63.8649826
52.600828,-0.940443814,0.094203517,-0.450482428,8.979447365,1020.206787,31.15213776,164.4781816,64.49094667,309.2361626,-0.920615196,0.085388087,0.34677583,-47.65195465,-27.59144783,-65.55013275
52.723234,-0.961918533,0.175296232,-0.747188628,8.925613403,1020.200195,31.04287529,159.049916,65.28898597,308.2580181,-0.980174541,-1.602127194,-0.733539402,-48.00270081,-25.17155266,-65.36873627
52.845125,-1.050779343,0.029620694,-0.060498178,8.746165276,1020.183105,31.09916306,144.8369344,77.11765101,298.2914607,-0.401379734,-0.707820415,0.293325096,-50.75283432,-23.96963692,-61.93341064
52.967884,-0.791355073,0.148831844,-0.229459226,8.871779442,1020.128662,30.79786301,136.1259297,73.68115745,292.5335156,-0.588609934,0.562473893,0.661676824,-52.31237793,-21.28232193,-61.3317337
53.090538,-0.761981666,0.314416379,-0.079780459,8.925613403,1020.083008,30.7680645,132.8303361,68.3232497,291.9514947,-0.353732258,0.886843324,-0.013023822,-52.55799103,-17.27855873,-62.82847214
53.216728,-0.735570252,0.225797087,-0.307311475,9.03328228,1020.05542,31.00645447,141.9475731,68.71298713,302.1114284,0.155729383,-0.351991445,-1.011177659,-50.9834938,-16.29500008,-64.98122406
53.342911,-1.03794384,0.060940936,-0.334065616,8.853834152,1020.039551,30.45683098,151.0373665,74.20542911,309.4523108,0.426342666,0.172436371,0.469254285,-50.45278549,-18.25016594,-64.51857758
53.4717,-1.126557946,0.186707497,-0.27019304,8.943558693,1020.048828,30.92367935,149.7939988,73.1621382,306.6880888,0.003609128,0.071953312,-0.141090065,-50.67200089,-19.12727928,-64.4516983
53.594407,-0.985861599,0.134992674,-0.226807892,8.961503029,1020.052002,30.70184517,155.742233,72.70340904,312.6241857,0.331032902,0.351729572,-0.191791877,-50.29964828,-19.72684288,-65.82383728
53.73481,-0.936741292,0.116540439,-0.407579362,8.853834152,1020.090088,31.08591843,174.5708516,69.77333301,322.4032101,2.160574436,0.4219791,-0.321906179,-48.51979446,-23.58195877,-65.78707886
53.856808,-0.88441211,-0.052346017,-0.440118223,8.889723778,1020.113525,31.4302597,195.1518954,68.49272036,332.4779474,0.4012824,-0.217291385,-0.477371395,-46.94702911,-29.75883102,-63.88121414
53.97919,-0.886880517,-0.242914468,-0.324906528,8.853834152,1020.140625,31.44350433,208.9037983,69.12801674,342.6314693,0.485887259,-0.334882945,-0.316408396,-46.12796783,-35.25956726,-60.5845108
54.101435,-0.994994462,-0.292124569,-0.225120693,8.746165276,1020.169434,30.77799606,214.8714712,70.30752211,351.3853027,0.043620802,-0.130853951,-0.035715811,-45.72025299,-37.28488922,-58.91010284
54.223576,-1.03350091,-0.207936719,-0.356963366,8.907669067,1020.214111,32.36726761,213.8735259,70.31911977,351.9002673,-0.040895827,0.020594029,0.010529948,-45.79695129,-38.27809906,-58.45355988
54.345632,-0.957969129,-0.165722191,-0.309480697,8.853834152,1020.261719,31.16207123,213.325772,70.12325726,351.5334358,0.208261162,-0.136468917,-0.074091718,-45.67703629,-38.8258934,-58.24806595
54.468087,-1.693292499,-0.537451267,-0.219336018,8.943558693,1020.310059,31.7282486,212.8995272,70.9778437,347.3399165,0.290117115,0.622225702,1.183985233,-45.65445328,-39.29462051,-57.68220901
54.590128,-1.269722581,-0.074538805,-0.027959317,8.835889816,1020.321533,31.07598495,179.7715079,67.00438798,309.0488925,0.880823851,1.054107428,1.453071356,-47.53371429,-36.23958969,-58.90153885
54.71231,-0.979196966,-0.044385564,-0.37865591,8.907669067,1020.318604,31.58256531,172.2710312,73.87982033,293.7873334,0.952295065,-0.548802972,-0.799188733,-49.71869659,-35.47563171,-55.1287384
54.83672,-0.576361239,-0.059341572,-0.564247966,8.835889816,1020.312988,31.04618645,189.9171155,74.68229242,304.7068934,0.439473659,0.44232592,-0.66113323,-50.53470612,-37.65441132,-51.39173126
54.967486,-0.942665339,-0.63876617,-0.048446745,8.853834152,1020.295166,29.77807999,231.1195076,67.544533,347.7946534,0.89579004,-0.588814616,-0.886542499,-47.594944,-42.52574921,-49.25541306
55.100455,-1.025108457,-0.472561538,-0.268987894,8.907669067,1020.281494,31.05611992,277.3439193,63.21160443,35.77164046,0.369835019,-3.331599474,-0.377386302,-43.71081924,-47.71084595,-42.52329636
55.226601,-0.413696527,-0.344229341,0.091386318,8.853834152,1020.258789,30.86077118,312.9862438,33.54751571,76.39980496,-0.526304245,-5.511166573,-3.828469515,-37.52585983,-50.62935638,-28.10198021
55.349019,0.167045236,-0.892777026,0.858543992,8.835889816,1020.225098,31.2249794,312.1316403,358.9089599,88.80105159,-1.167407393,-2.704241037,-2.373388529,-20.77696037,-53.91869354,-21.71149826
55.471478,-0.28731668,-0.742734492,0.793964326,8.907669067,1020.21167,31.0494976,304.0146845,339.2280799,89.47895469,-1.242238283,-1.073536158,-2.264654398,-2.91402173,-54.25869751,-24.29050636
55.593649,0.21238263,-1.39018476,1.056182146,8.925613403,1020.20459,31.37397385,300.1901849,332.9517166,83.25261572,-0.646950126,1.225149751,-1.423798561,10.94400215,-51.79792023,-28.11485672
55.716268,0.979481518,-0.584249139,0.663586497,8.871779442,1020.196777,31.00645447,312.4709983,326.0678695,63.59856197,0.944353819,1.14940238,-2.119879246,21.23323441,-45.41777039,-25.81538773
55.838266,0.45604077,-0.69473058,0.568057358,8.907669067,1020.18457,30.33763695,328.8183935,320.9313658,50.66227589,1.828886747,0.033962492,-1.207552195,28.95921707,-36.3572464,-20.8133564
55.960757,0.353971034,-0.549030125,0.379192322,8.853834152,1020.189453,30.83759499,334.2685942,315.7154098,52.7792896,0.841728449,-1.518551588,0.195299849,33.76083374,-28.77794266,-19.71147537
56.083481,0.307663858,-0.470149279,0.850014567,8.943558693,1020.184082,31.57263184,325.9055057,311.2211454,63.85096478,-1.374185205,-0.815445662,1.457652807,36.90078735,-26.16472816,-24.16293526
56.211629,0.637147903,-0.767822027,0.562452376,8.853834152,1020.190186,30.52967262,296.196669,321.1249197,77.53205908,-2.99022913,-0.091875747,1.24659884,35.46315002,-31.485466,-31.9855175
56.33443,0.791828334,-0.209866524,0.923611045,8.925613403,1020.186035,29.94031906,286.9563997,324.0306119,77.53634844,-0.142070055,1.237672448,2.046221495,33.77064133,-35.25420761,-37.16881561
56.48058,0.787949204,-1.030034661,-0.009641143,8.835889816,1020.186523,29.75821495,278.9477297,343.5082982,66.91540428,-1.851271033,1.675051928,1.168102741,27.321455,-42.68770981,-37.82085419
56.594668,0.649997532,0.238907903,-0.443733633,8.889723778,1020.188721,30.91705894,278.7217802,337.9019953,69.80468358,0.551872909,-0.845683455,-0.490701795,23.65714455,-46.47578049,-38.98752975
56.681523,-0.069854483,-1.261129022,0.217377588,8.889723778,1020.193115,30.96010017,279.0890737,337.8828554,71.93428192,-0.456054777,0.214167744,-0.019419283,22.23605728,-48.0764122,-39.55350113
56.767929,0.317846596,-0.135568947,-0.111355208,8.943558693,1020.19458,30.82766151,277.6294417,331.4897966,75.82683405,-0.24316825,-0.827968359,-1.681889057,22.59595299,-47.70160294,-40.90177155
56.850278,0.545260906,-1.054639578,0.01315963,8.979447365,1020.192627,30.6687355,275.8444128,321.1837344,83.35987701,0.419620544,-1.473347545,-1.41249752,25.39459801,-44.25958633,-43.89439011
56.932903,0.519076705,-1.162226319,0.454738319,9.01533699,1020.188232,33.03277588,274.672646,315.9423873,86.69503789,0.522245944,-0.136774346,-1.268027902,28.75971794,-40.75315857,-46.06923294
57.021242,0.775584459,-0.721989095,0.524679303,8.871779442,1020.179688,30.83428383,286.6504961,310.0642069,81.10588726,1.329809785,0.70072192,-1.439986467,32.10945511,-36.5686264,-44.26740265
57.103146,0.815345585,-0.672537804,0.437435836,8.961503029,1020.178711,30.7448864,300.7424672,306.0453919,70.87858739,1.38112247,0.738290131,-1.365766287,35.43412781,-32.58307266,-40.71781921
57.187693,0.751339853,-0.828852177,0.120386243,8.997392654,1020.181641,30.897192,306.9578232,303.6866032,65.00558777,-0.353734851,-0.134636313,-0.585691333,37.98574829,-27.95191956,-38.12856293
57.293743,0.651694596,-0.660717726,0.382360339,9.03328228,1020.170166,32.04279327,305.7036946,302.3085749,64.19247424,-0.213541284,0.018079996,-0.367917895,39.20755768,-24.67269897,-37.27806854
57.416446,0.674242139,-0.23302421,0.556603611,8.835889816,1020.164551,28.27820587,313.3862641,300.8071628,56.67017175,0.189935207,0.471647441,-0.728633821,40.39414978,-22.13725281,-36.0166626
57.538716,0.826013267,-0.750212491,0.46570465,8.907669067,1020.156982,30.58927155,321.194188,302.8161058,47.93196582,-0.116108268,0.754478037,-0.01331063,41.17123032,-20.00027084,-33.6304245
57.660933,0.830377281,-0.537692547,-0.046518516,8.925613403,1020.143799,30.98989868,317.7018269,306.3974165,49.88715528,-0.217817336,-0.304762274,0.454001307,40.66133499,-19.35674667,-30.58660698
57.783676,0.610236347,-0.594621837,0.366276383,8.835889816,1020.148682,31.77791214,305.0956234,310.1985773,60.27166561,-0.499120802,-0.437320024,1.378851175,40.26422882,-22.11514282,-31.53829575
57.906087,0.825285912,-0.783984184,0.579023719,8.782054901,1020.133057,30.87401581,292.6704745,318.695056,68.78945792,-0.582503855,-0.203969523,1.533400178,38.44475174,-27.95970917,-33.94398499
58.035626,0.700911164,-0.675191283,0.260755628,8.907669067,1020.134521,30.87070465,288.1424484,326.2088685,72.8002338,-0.315861225,-0.009408941,0.473243535,34.40626907,-34.91339874,-35.97992325
58.157499,0.394217044,-0.661441445,0.298041254,8.943558693,1020.128906,30.93692398,288.7925595,325.8607816,73.80290557,0.167027757,0.019912591,-0.173968196,32.1312561,-38.38924026,-36.88722229
58.279692,0.406096905,-1.298760295,0.550998569,8.907669067,1020.133789,30.87732697,290.7813671,330.3105166,72.90798686,0.454134434,0.510437369,1.10426724,30.97299767,-40.06643295,-35.66053772
58.402181,0.516894698,-0.556025743,-0.037600461,8.853834152,1020.14502,30.00653839,292.2401589,336.2784252,71.25390629,0.012478861,-0.134330884,0.127799243,27.90442848,-43.90665817,-33.2440033
58.524726,0.375306278,-0.485828936,0.252226233,8.835889816,1020.150146,30.97003365,291.3807777,332.6601905,73.83737753,-0.15031673,-0.155100301,-0.414954513,26.92209816,-45.03194046,-32.60306168
58.64714,0.209715724,-1.120011926,0.336545348,8.907669067,1020.146729,29.62577629,292.1430746,335.2887,71.56546537,-0.746826589,0.476839811,0.364204109,26.78782272,-45.38941574,-32.74294662
58.77698,0.434947997,-0.470390499,0.136226535,8.853834152,1020.145264,31.28126526,291.1770605,336.0342596,69.66438467,0.491397202,-0.745501578,-1.231375933,25.6912899,-46.1977005,-31.32326508
58.899081,0.454586089,-0.897842765,0.332158804,8.835889816,1020.141602,30.63231277,289.3173981,321.0988352,78.62051803,-0.784394801,-1.120267391,-1.403945446,29.81155205,-41.6271019,-34.93784332
59.022284,0.53265363,-1.167292118,0.56610775,8.925613403,1020.143799,30.47669792,285.4945617,319.6624635,80.63965172,0.392437041,0.175072357,0.02517388,32.78908157,-37.61959839,-39.19858932
59.144778,1.174650431,-0.40622443,0.033142772,8.889723778,1020.145508,31.15213776,289.5290041,313.9647641,79.19395339,-0.675966263,-0.540556312,-1.084768295,34.69849014,-34.41609573,-41.23755264
59.284334,0.671332777,-0.575323761,0.203730568,8.871779442,1020.143799,30.06613541,288.0535262,307.6780872,82.70244398,0.677100301,-0.756802559,-0.755817354,36.22117615,-30.99841499,-43.4901886
59.406381,0.785039842,-0.846461654,0.587796807,8.961503029,1020.165039,30.84090614,288.6121469,302.2237713,87.13330381,0.580583572,-0.664867342,-0.71580565,37.29321289,-27.64889336,-45.67270279
59.535571,0.972450614,-0.336510122,-0.012774515,8.907669067,1020.161377,30.91374779,291.7501885,287.9122642,87.66049196,0.423591167,-0.984349906,-3.29548955,38.3085556,-22.6083374,-48.53520966
59.658958,0.618721962,-0.372694016,0.039966282,8.889723778,1020.183105,31.15544891,315.1767333,273.6035848,63.07446106,0.111744463,-0.181367502,-0.563700199,38.08389282,-11.39728642,-53.09973907
59.781589,0.945539057,-0.013749876,-0.000723086,8.979447365,1020.221191,32.4897728,321.9659311,272.6090956,55.00515946,0.007286506,-0.098289832,-0.275982678,37.86938858,-5.33716917,-54.79032898
59.908827,0.957661331,0.06021256,-0.080021493,8.907669067,1020.252441,30.75150871,339.688071,271.1293488,36.28298598,-0.146119103,-0.073692486,-0.046795748,37.1656189,-1.565199614,-55.76151276
60.031815,0.986754835,-0.020262975,-0.086770289,8.943558693,1020.299072,31.34748459,232.8169599,270.8552396,139.6609897,-0.435058385,-0.226408795,0.043001443,36.86982346,0.180457249,-57.0319519
60.160066,0.945539057,-0.059341572,-0.164381504,8.925613403,1020.429199,30.61907005,194.7606212,273.2723138,174.279585,-0.107023723,-0.390120685,-0.02266657,36.26326752,0.925054252,-58.29855347
60.286983,0.971723258,-0.051381115,0.045571312,8.907669067,1020.583496,30.88063812,197.9902215,273.8620392,169.768409,0.060964223,-0.060558882,-0.051071804,35.64715195,1.122965455,-59.4462471
60.409211,0.914505959,-0.150766194,-0.573165953,8.925613403,1020.599365,32.38051224,197.6497502,274.0320631,169.3053358,0.044470862,0.062835895,-0.111852899,35.46424484,1.56674242,-59.92589188
60.531744,0.953539789,0.024036465,-0.066282861,8.943558693,1020.603027,30.88394737,187.328064,273.6597153,179.3935662,0.041192722,-0.050231811,-0.046964064,34.93644714,1.416190624,-60.26533508
60.653865,0.922749162,0.090076044,0.059949428,8.943558693,1020.596924,32.5891037,181.9132676,273.9012376,184.5362105,0.045468777,-0.030989554,0.094451241,34.88889694,1.41717267,-60.11435699
60.77635,0.90820241,-0.369558066,0.182285249,8.925613403,1020.596436,30.996521,184.165181,273.9381548,182.8863237,0.361591518,-0.1213976,-0.168831676,35.21645737,1.29524219,-60.76569748
60.899271,0.922264278,-0.02002175,-0.137627319,8.835889816,1020.600098,31.15213776,180.9677099,277.4299387,184.5298174,0.044247046,-0.270448744,-0.045742333,34.52137375,1.189840674,-61.63576889
61.027486,0.869411051,-0.002412259,-0.309480697,9.01533699,1020.555664,30.71508789,177.5664632,278.3973941,188.0006737,0.41870743,0.079577059,-0.146535099,33.63814926,1.677052498,-61.89891434
61.149874,0.947963536,0.022579709,-0.151124924,8.907669067,1020.551758,30.58264923,174.172269,278.2699427,192.7290087,0.109304197,0.046590332,-0.104690827,34.0316391,1.63790381,-62.02853394
61.273121,0.928810298,-0.050416213,-0.18077144,8.961503029,1020.545898,31.51303482,169.4441799,278.2440495,197.6884911,0.187800378,0.17334488,-0.186241329,34.16276932,0.968525887,-61.52656555
61.395963,0.913778663,-0.07164409,-0.302972943,8.943558693,1020.411133,31.24815559,162.3055803,277.5702786,205.1811813,0.081204399,0.381344467,-0.196626052,34.4250412,0.305698782,-60.98257828
61.518538,0.924931169,0.156358421,0.125747576,8.943558693,1020.279541,30.65880203,138.8693298,275.2744403,228.7089563,-0.01011996,0.277497381,-0.062541127,35.0223999,0.177600458,-58.43969727
61.644698,0.984572887,0.019180615,-0.049651891,8.925613403,1020.262695,30.68197823,120.4422854,274.3702257,246.6993467,0.007740697,0.063817494,-0.033813208,35.49337769,0.324491024,-57.52639389
61.767369,0.937538326,0.140576899,0.062630087,8.925613403,1020.265381,30.74819756,113.9272002,274.1573219,253.0729104,0.005901205,-0.002432851,0.084490374,35.44721985,1.068425775,-57.86875153
61.889251,0.959600985,-0.087564997,-0.12461178,8.961503029,1020.256836,30.90381432,122.0295941,273.5785044,244.4212054,0.017813997,0.069379568,0.014001528,35.67068863,1.201085091,-58.64095688
62.011544,0.955721796,0.073808946,-0.054231431,8.979447365,1020.246094,30.82766151,118.7182637,273.0960471,247.3808357,0.022700919,0.103588022,0.069590263,36.2748909,0.318162262,-58.05984116
62.133962,0.970268548,-0.103485912,-0.087734409,9.01533699,1020.246094,30.72502136,112.556231,272.2992509,253.1336991,0.015675969,0.068157837,0.014306961,36.74655151,-0.11281018,-57.78510666
62.256515,0.972935498,0.048315722,0.029487317,8.907669067,1020.218994,30.90050316,110.8002235,271.8972328,254.6092454,0.015743978,-0.04081355,0.016086128,36.80199051,-0.576810539,-57.27095032
62.404751,0.947721064,-0.019780524,0.056781366,8.943558693,1020.193359,30.84752655,113.2710581,271.7855319,251.7623884,0.013753049,0.009987678,-0.036033385,36.99630737,-0.937234581,-57.16629028
62.519335,0.957661331,0.046616174,-0.043626174,8.835889816,1020.184082,29.86747742,113.2391269,271.9159134,251.6647235,0.013341309,-0.007343207,-0.002573241,37.05792236,-1.369818687,-56.78651428
62.605093,0.954267144,-0.011337617,-0.02048743,8.889723778,1020.170654,31.64547348,116.9968784,271.81887,247.6533602,0.011591193,-0.004700586,-0.012471175,36.79511642,-1.477315307,-57.0643425
62.691209,0.954024673,0.000485585,-0.038564574,8.997392654,1020.162354,29.28474426,120.3585609,271.8095946,244.1074539,0.009635903,0.00192215,-0.013459423,36.64135742,-1.412026048,-57.06174088
62.778083,0.95499444,-0.020504201,-0.008194972,8.961503029,1020.162842,29.99991608,121.7583672,271.7386631,242.4737956,0.009600148,-0.001535821,-0.027102146,36.60804367,-1.095283389,-56.94554138
62.860209,0.956691563,0.009226118,-0.02048743,8.961503029,1020.161621,30.92367935,122.1561438,271.769679,241.8858939,0.010156991,-0.007422559,-0.027703745,36.59352493,-0.9053666,-56.71720505
62.942542,0.95499444,-0.021710331,-0.027236229,8.871779442,1020.162598,31.10247231,123.9130051,271.8182212,239.9115321,0.007556554,-0.012329834,-0.025823459,36.64055634,-0.455128759,-56.83037949
63.03163,0.953539789,0.032291412,-0.037841488,8.979447365,1020.151367,30.48994064,125.7474709,271.9790243,237.9658434,0.008483563,-0.005537238,-0.002115944,36.10438156,-0.183159724,-57.08009338
63.117865,0.955479383,-0.060788926,-0.002169257,8.943558693,1020.153809,30.53960609,129.4622059,271.8280976,233.9553339,0.0062409,-0.014596719,-0.021854356,36.43261337,-0.306940764,-56.86406708
63.223588,0.958631158,0.004127474,-0.047482632,9.03328228,1020.155273,33.20163345,132.6989369,272.0925626,230.5447336,0.005702303,-0.040339701,-0.011089875,36.68231964,-0.509428918,-56.76628113
63.345583,0.938750565,0.062883273,-0.053026289,8.925613403,1020.149414,31.10578346,135.3979818,272.1670867,227.8439675,0.008194745,0.037354067,0.003562905,36.67691803,-0.763143241,-56.93398285
63.468093,0.967601657,0.034476548,-0.056882747,8.925613403,1020.148193,31.52296829,138.3824739,272.0630766,224.6962065,0.007197711,-0.014446511,-0.007104213,36.79799652,-0.83452791,-56.58951569
63.590147,0.951842666,0.003641889,0.001218484,8.925613403,1020.14624,30.88063812,140.1667789,272.0544296,222.805173,0.007406644,-0.004912483,-0.008218426,36.83218765,-0.695269823,-57.00388336
63.712474,0.952327549,0.014567555,-0.041938975,9.03328228,1020.157959,30.45683098,141.9671894,272.0267127,220.9118173,0.006998806,0.007252032,-0.003294996,36.63684082,-0.820313871,-56.76604843
63.835544,0.955479383,0.013353592,-0.043385144,8.997392654,1020.151367,30.97003365,141.4283558,272.0510896,221.4168278,0.009029152,0.003633756,0.002833887,36.86341476,-0.777490079,-56.89506912
63.957984,0.954024673,0.000485585,-0.031815775,9.01533699,1020.151855,30.61907005,142.0585637,272.000273,220.7163236,0.007646403,0.013733366,0.002433278,37.0318222,-0.847459078,-56.41817093
64.086764,0.961055577,0.057299048,-0.003856457,9.01533699,1020.145752,31.14220428,140.5562636,271.9892833,222.1586,0.009985318,-0.022011857,-0.002131558,36.78548813,-0.885234177,-55.8933754
64.209039,0.953782201,0.007283777,-0.029405488,9.087116241,1020.144287,29.20196915,142.5095065,272.0739571,220.1488715,0.007152291,-0.004776534,-0.006951573,36.61569977,-0.472756535,-55.94047165
64.334293,0.954752028,0.004855852,-0.040733829,9.105061531,1020.154785,30.95678902,144.1011728,272.1220963,218.4431547,0.00373488,-0.014442232,-0.012677519,36.49584961,-0.396289498,-56.42823792
64.457357,0.955236912,0.011896837,-0.042903088,9.105061531,1020.167236,30.84752655,144.7300556,272.2609677,217.7133216,0.003244263,-0.000927271,-0.007569467,36.73079681,-0.404335409,-56.86375427
64.57962,0.952085137,0.001456755,-0.029646518,8.997392654,1020.175293,30.90050316,143.9636537,272.2236066,218.3988404,0.002987606,0.006581207,-0.007472664,36.51568985,-0.705622971,-57.02753448
64.702357,0.95499444,0.001942341,-0.038564574,8.997392654,1020.184326,28.65565872,143.6656389,272.1593072,218.6319001,0.003894302,-0.012232905,-0.01104467,36.68150711,-0.519211113,-57.07807159
64.840791,0.953054905,0.011411251,-0.050616,9.123005867,1020.190674,31.5295887,144.9250029,272.2162914,217.2743454,0.003087802,-0.012230314,-0.012408882,36.89274216,-0.397420704,-57.0696907
64.96866,0.949418247,0.024279257,-0.040733829,8.997392654,1020.187256,30.48994064,145.6351513,272.3169752,216.5610824,0.004628225,-0.000565082,0.006255982,36.53480148,-0.479456842,-57.79886246
65.090851,0.958631158,-0.008684132,-0.02217463,8.997392654,1020.196045,31.05611992,147.5231249,272.3598279,214.5721313,-0.000449331,-0.021188498,-0.021276811,36.29427719,-0.698976278,-57.59077072
65.220354,0.950872898,0.010197288,-0.029887544,9.105061531,1020.193115,30.90381432,149.1399126,272.5181585,212.9001966,0.001793516,-0.017061355,-0.017583463,36.08512878,-0.441586852,-57.15684509
65.3437,0.952812493,0.01699548,-0.057846863,8.979447365,1020.191895,30.76475334,149.2701506,272.7252703,212.7185272,0.002896827,-0.01230043,-0.002192287,36.30932617,-0.286525905,-57.84269714
65.466227,0.95111531,0.022094125,-0.052303202,9.087116241,1020.187012,30.87401581,150.3013726,272.8312338,211.6506408,0.00092457,-0.001662629,-0.003594652,36.22500229,-0.264303595,-57.60897064
65.589148,0.952812493,0.015295932,-0.063872576,8.943558693,1020.184082,30.78792953,151.2016189,272.9023225,210.7088124,0.001566603,0.006784331,-0.001072277,36.23834991,0.120145924,-57.70031738
65.711334,0.952812493,0.047587346,-0.068211086,9.01533699,1020.179443,30.98658943,151.6012806,272.9277717,210.2727868,0.004122187,0.021645974,0.01592491,36.38710785,-0.156782925,-57.57587814
65.833887,0.949903131,0.00097117,-0.028441373,9.105061531,1020.177002,30.75813103,152.2328955,272.6696862,209.5594145,0.000272772,0.015602881,-0.016057555,36.19416809,-0.310334027,-57.52941895
65.956093,0.953539789,0.001456755,-0.100508921,9.105061531,1020.172363,31.06274033,154.8991008,272.7833337,206.7642962,0.005618597,-0.012713788,-0.009097449,36.22940445,-0.4047167,-57.63124084
66.07828,0.943599463,0.013596384,-0.133770868,9.158895493,1020.177979,30.74157524,155.8412981,272.7344501,205.8682573,0.002215741,0.071244895,0.028821293,36.43693161,-0.578552544,-56.96286392
66.200946,0.973662794,0.056327876,-0.016389944,8.979447365,1020.186523,30.92036819,155.5287759,272.4114368,206.0675759,0.002752582,-0.028017934,-0.006073169,36.45434952,-0.523379624,-56.89654922
66.323311,0.946266413,0.039332394,-0.106775664,9.051226616,1020.191162,30.99983215,161.2582118,272.6118687,200.3653925,0.002975652,0.022464152,0.010986267,36.21430969,-0.490533292,-57.5297699
66.445728,0.960813165,-0.014473554,-0.033261944,9.087116241,1020.192627,30.65880203,160.5799194,272.5716184,201.0103809,0.00191268,-0.00224678,-0.011752626,36.29773331,-0.402145028,-57.76963425
66.572794,0.95499444,-0.002653485,-0.050133947,9.051226616,1020.198242,31.0196991,158.7402353,272.6323251,202.8783693,0.001004904,0.005053809,-0.004988874,36.38180542,-0.168977171,-57.80868149
66.695337,0.954509556,0.040789153,-0.090626746,9.087116241,1020.208008,29.83767891,158.3475677,272.6929703,203.2622259,0.002836528,0.008106886,0.005700549,36.20978546,-0.189467221,-57.64558792
66.817802,0.955236912,0.033019789,-0.072549611,9.105061531,1020.212158,32.1619873,159.0334689,272.673716,202.5447419,0.004668196,0.00871572,0.010584451,36.45169449,0.061734907,-58.1954422
66.940267,0.954509556,0.00097117,-0.042662058,9.087116241,1020.212891,31.14220428,159.0723464,272.6649119,202.4092446,-0.000830262,0.001385001,-0.014763674,36.205513,0.457576334,-57.93850327
67.073481,0.953054905,0.033505373,-0.019764345,9.069171906,1020.214355,31.12565041,156.1635054,272.7088437,205.3092063,0.002529091,-0.010526374,-0.000407597,36.27830887,0.192966327,-57.89599991
67.19606,0.951842666,0.016267104,-0.071585491,9.105061531,1020.212646,31.0958519,156.3912786,272.8397989,205.0290729,0.000390469,0.002914329,-0.001933006,36.39870453,0.06537804,-57.3757019
67.318769,0.955236912,0.02743556,-0.053990405,9.069171906,1020.224365,30.87732697,154.9831804,272.9312483,206.4234561,0.00313882,-0.007468665,-0.004985014,36.13747787,-0.044127867,-58.27853775
67.441235,0.952327549,0.030591864,-0.052544229,9.105061531,1020.219238,30.93692398,154.3272774,273.0547313,207.0796323,0.002833027,-0.003497019,-0.006204967,36.04416656,-0.086894773,-58.48493576
67.568364,0.950630426,0.017238274,-0.037118401,9.123005867,1020.218506,31.32761955,153.622757,273.1515697,207.779795,0.002832537,-0.008992245,-0.009866995,35.91077805,-0.195478454,-58.05496979
67.690868,0.951600194,0.010197288,-0.042903088,9.069171906,1020.229736,30.9733448,152.6678419,273.2678878,208.7705686,0.003442867,-0.00837978,-0.001008784,35.92585754,0.222440109,-58.25128937
67.813327,0.948205948,0.041274738,-0.013497601,9.105061531,1020.222168,30.17539787,152.2902144,273.2807423,209.1529363,0.002831519,0.005058212,-0.004062907,35.83463669,0.234603852,-58.31032181
67.936254,0.950872898,0.041031945,-0.083636917,9.051226616,1020.222656,31.01307678,152.4311485,273.3438054,209.0077264,0.003441175,0.009333313,0.005404843,35.62392426,0.045371678,-57.58739853
68.058399,0.956691563,0.019423407,-0.067005947,8.997392654,1020.215088,31.47992516,152.864647,273.3626635,208.5610184,0.002523824,0.005360526,-0.001009853,35.82769775,0.204050332,-57.85942078
68.182145,0.95111531,0.014567555,-0.057364807,9.123005867,1020.207031,31.08260727,154.4482946,273.3084318,206.9423592,-0.00053094,0.003831459,-0.000711574,35.81202316,0.036610879,-58.05003738
68.304792,0.950387955,0.042731494,-0.075924002,9.140951157,1020.206299,30.7448864,154.5529195,273.3473161,206.8240193,0.001301219,0.013297608,-0.001017049,35.76157379,-0.195488274,-58.15516281
68.4314,0.953054905,0.04418825,-0.073031664,9.03328228,1020.203857,31.00314331,153.309907,273.2727304,208.0726872,0.002827849,0.009630449,0.00875623,35.91359329,0.029232232,-58.13747787
68.564546,0.953539789,0.001942341,-0.052303202,9.087116241,1020.179443,31.11902809,153.3859953,273.2735706,207.974633,7.85E-05,-0.003198083,-0.007735841,36.06303406,-0.291998625,-58.45222092
68.686736,0.950872898,0.037390053,-0.05664172,9.01533699,1020.169434,30.21844101,152.581399,273.3624928,208.842108,0.001605141,0.003520533,0.004481036,35.97369003,-0.190464795,-58.61120987
68.809093,0.95111531,0.030591864,-0.061462291,9.051226616,1020.159424,31.08260727,152.7786549,273.3834478,208.6499884,-0.001144113,0.007183667,-0.000711567,36.06493759,-0.257717192,-58.80642319
68.931925,0.948933303,0.059241388,-0.079539433,9.158895493,1020.150146,30.62569237,153.001483,273.3705183,208.4395503,7.76E-05,0.009016263,0.007535114,36.15981674,-0.319961488,-59.26068115
69.054696,0.945539057,0.118725568,-0.122683555,9.105061531,1020.149902,31.23491287,152.7787505,273.3688927,208.7109001,0.002520996,0.034673028,0.021585256,36.19473648,-0.390518218,-59.16087723
69.181361,0.955721796,0.052685987,-0.086288236,9.069171906,1020.148926,29.33109856,153.8422383,273.2958643,207.6207199,0.00496359,0.018487444,0.005090404,35.91205597,-0.450142801,-58.64052963
69.304872,0.947721064,0.046373382,-0.084842063,9.087116241,1020.14917,30.19195366,153.6624131,273.2193593,207.8553369,0.003435682,0.032223336,0.013943236,35.74440384,-0.176166862,-58.6299057
69.42744,0.957661331,0.004370267,-0.052062176,9.194785118,1020.162598,31.03956413,155.6013535,273.2681815,205.8725603,0.002518692,0.011148897,0.00722165,36.26997757,-0.117128454,-58.30508804
69.550508,0.950387955,0.020394577,-0.052303202,9.140951157,1020.158447,31.07929611,156.1733545,273.1686042,205.283798,0.003433911,0.015114311,0.003859438,36.31642532,-0.207231551,-57.43019485
69.672784,0.951600194,0.013839177,-0.057605833,9.087116241,1020.168701,30.3409481,156.7199336,273.0355111,204.7126713,0.001295345,0.018163301,-0.001945899,35.99028015,-0.329448551,-57.39740753
69.79828,0.954024673,0.05681346,-0.030369602,9.105061531,1020.189453,31.81433487,159.2944505,273.2105279,202.1355862,0.002516569,0.096043684,0.017293714,36.22652817,-0.351474434,-58.06286621
69.92472,0.954024673,0.000728378,-0.007471886,9.194785118,1020.210205,31.0494976,158.8164192,272.8739908,202.565615,0.001599605,0.006545206,-0.007141523,36.1181221,-0.376401573,-57.74425507
70.053046,0.954752028,0.003641889,-0.032538861,9.069171906,1020.223633,31.67196274,157.7235889,272.8311655,203.633679,0.001293994,-0.01147349,-0.013858614,35.87600327,-0.075899757,-57.31280136
70.175711,0.948205948,0.036904473,-0.070621379,9.069171906,1020.231445,31.70838165,156.349109,272.9840593,204.9885289,0.000987998,-0.002307197,-0.00499659,35.78795624,0.271392733,-58.11449814
70.324478,0.957903802,0.025978805,-0.040492803,9.158895493,1020.242432,31.49316788,151.7759558,273.3402332,209.6580834,0.001903873,-0.002001582,-0.005301928,36.14946747,0.363382965,-58.04172516
70.466059,0.952812493,0.055599499,-0.057364807,9.105061531,1020.248535,30.97003365,149.4472165,273.4388338,212.0751097,0.001292343,0.001357619,-0.004079699,36.34728241,0.092936091,-57.75929642
70.589326,0.951600194,0.066282369,-0.104124352,9.194785118,1020.248047,31.13227081,149.1709763,273.4201054,212.354123,0.001597641,0.033733338,0.013635788,36.06775284,-0.040404201,-58.37124252
70.71171,0.96541965,0.039089605,-0.055436578,9.176840782,1020.251465,30.33763695,148.9388455,273.3658054,212.5918682,0.002818584,0.013265518,-0.075246565,36.21392059,-0.016878569,-58.23475647
70.838838,0.958388686,0.036904473,-0.058087889,9.158895493,1020.270264,32.02292633,146.8078811,273.3351311,214.7055659,0.000374868,0.003184118,0.001417008,36.39181137,0.328749686,-58.28915787
70.961107,0.950145543,0.026221598,-0.040010747,9.105061531,1020.282715,31.93021774,146.4663307,273.3093198,215.0056161,6.89E-05,0.003182841,-0.001331053,36.11793518,0.270596504,-58.87897491
71.083768,0.956206739,0.015538725,-0.086770289,9.069171906,1020.280518,31.30775452,146.8208038,273.2698003,214.5991105,6.88E-05,0.010206357,-0.003774188,36.16553497,0.177463219,-58.70212555
71.2062,0.950145543,0.023550879,-0.047723662,9.051226616,1020.273926,31.16538239,146.1915248,273.2605659,215.2419133,0.001289728,0.012952782,0.012106462,36.1088295,-0.067576051,-58.46189499
71.328482,0.949660659,-0.060547702,-0.048205718,9.123005867,1020.282959,31.04618645,148.5122592,273.0746618,212.8128521,0.002205732,0.009591103,0.000193993,36.12160873,-0.055187214,-58.28639984
71.451035,0.952327549,0.055113915,-0.084842063,9.01533699,1020.301025,29.05628777,153.1786991,272.9140294,208.1314951,0.002510948,0.002259905,-0.001944119,36.44552994,-0.05007226,-58.16435242
71.583716,0.952812493,0.01699548,-0.055195544,9.087116241,1020.302979,31.36735153,152.7765102,272.9476271,208.5483689,0.002815799,0.001953978,0.005385265,36.36315536,-0.176525265,-58.40967941
71.706171,0.959600985,0.021365747,-0.044831317,9.158895493,1020.306641,31.11571693,153.7236526,272.9806511,207.5941915,0.004036404,-0.006597867,0.00599491,36.51631165,-0.268934578,-58.29837036
71.828441,0.950872898,0.024764843,-0.016630972,9.087116241,1020.319824,31.03956413,152.7366083,273.0617118,208.5699386,0.001592464,-0.007512681,-0.011406559,36.45159149,-0.495606989,-57.91596603
71.954822,0.946993709,0.074294522,-0.033502974,9.03328228,1020.313477,31.23491287,148.0998251,273.2485379,213.2678657,0.004951724,-0.010260183,-0.020566903,36.33241272,-0.555850089,-58.19707489
72.077354,0.955236912,0.031563032,-0.073754743,9.01533699,1020.315918,31.29119873,148.0879678,273.4817206,213.3671766,0.001897299,-0.007507199,-0.004070555,36.16038513,-0.563449562,-57.96653748
72.201324,0.949418247,0.011168458,-0.043385144,9.140951157,1020.307861,30.88063812,148.5915577,273.5174151,212.8832987,0.001896868,-0.008116413,-0.001931852,35.99772644,-0.107966289,-58.12281036
72.323985,0.950630426,0.031805828,-0.058087889,9.284508705,1020.310303,31.06605148,148.9599508,273.6054904,212.5097147,0.004339589,-0.011778723,-0.008954741,35.83811951,0.328267038,-58.54690552
72.446428,0.949660659,0.035690509,-0.052303202,9.087116241,1020.291504,32.84404755,148.6689301,273.7585891,212.7955718,-0.000547457,-0.007806195,-0.005287054,35.90418625,0.130526379,-58.2433815
72.568975,0.953782201,0.007283777,-0.050857034,9.140951157,1020.275391,31.56932068,148.6596274,273.8523403,212.7908999,6.29E-05,-0.011469405,-0.008339038,35.92092896,0.357154071,-58.63919067
72.691352,0.94723618,0.040303569,-0.076165035,9.176840782,1020.264648,31.12233925,148.6890108,273.8999331,212.7255487,0.00220065,-0.001390098,-0.005588548,35.81177139,1.057835817,-58.9079895
72.814012,0.94723618,0.040789153,-0.055918634,9.194785118,1020.248535,31.24815559,144.9843982,274.0428343,216.3949995,0.002505707,-0.005665649,-0.00069511,35.67893982,0.682062507,-59.34666061
72.936475,0.942629755,0.052443195,-0.049410861,9.176840782,1020.236084,31.16207123,145.7468249,274.1176112,215.6013588,-0.001465375,-0.002915209,-0.007413445,35.61336899,0.541543603,-59.14487076
73.066144,0.949175775,0.02840673,-0.062667429,9.123005867,1020.220459,31.0958519,145.8053596,274.2033301,215.5364584,-0.002076645,0.001666799,-0.001914141,35.50271225,0.48136732,-58.82933426
73.18845,0.946751297,0.039575189,-0.056400687,9.123005867,1020.221191,31.84082222,147.0748732,274.1634896,214.2434762,-0.000244275,0.001665726,0.002659883,35.83033371,0.637116194,-58.70723724
73.310939,0.952570021,0.033019789,-0.045072347,9.176840782,1020.207275,30.9435463,147.2986165,274.2091972,214.0074659,0.002198447,0.003191764,0.000827163,35.84028625,0.354988217,-58.58681488
73.433757,0.949903131,0.026949978,-0.061944347,9.069171906,1020.197998,31.08591843,144.698869,274.3422151,216.6146857,-0.000856459,0.003495314,0.001139163,35.88484955,0.558721006,-58.46854401
73.560039,0.947963536,0.018937821,-0.077129148,9.158895493,1020.18457,31.09916306,144.4761092,274.2141218,216.7891697,-0.001467704,0.003188116,-0.004052497,35.84685516,0.535302162,-58.0941124
73.682808,0.948690891,0.033990961,-0.085806176,9.123005867,1020.181152,33.12216949,144.8734076,274.1911996,216.3732932,-0.000246455,0.010516349,0.003887778,35.86038589,0.743543148,-57.61014938
73.807171,0.951842666,0.031805828,-0.059052002,9.105061531,1020.177002,30.31777,145.1370529,274.1710574,216.0942253,-0.000246911,0.005016491,0.005719118,36.16391754,0.683232605,-58.0524292
73.929051,0.95111531,0.027921148,-0.061703317,9.176840782,1020.16626,30.62238121,146.7329813,274.3415389,214.5022858,0.002501296,0.013570024,0.010603707,36.11156082,0.885431528,-58.65217972
74.051681,0.948933303,0.023550879,-0.087975435,9.176840782,1020.155518,31.23491287,145.7962755,274.0839862,215.4193206,0.001584445,0.023026673,0.007241635,35.81373978,0.787180722,-58.73360062
74.17393,0.955964267,0.02646439,-0.047000576,9.158895493,1020.153564,30.96010017,146.0902741,273.9319871,215.0667053,0.001889114,0.009887846,0.001131011,35.7211113,1.114606738,-59.16720963
74.2963,0.953539789,0.030591864,-0.073754743,9.176840782,1020.160645,30.09924507,145.9005041,273.8792376,215.2269962,0.000972576,0.011413398,0.005406236,35.80236816,0.871356487,-59.27484512
74.418846,0.946993709,0.017238274,-0.036154289,9.158895493,1020.145752,31.28126526,146.3803659,273.7225735,214.6956484,0.003109999,0.011409649,0.005099183,35.9601326,0.535448074,-58.55788803
74.548353,0.951600194,0.032534208,-0.063631549,9.087116241,1020.140137,31.09254074,146.9299639,273.6615321,214.1123776,0.001277257,0.004382789,0.001127539,35.94804382,0.324968487,-59.02252197
74.670872,0.95111531,0.026221598,-0.064354628,9.176840782,1020.140381,30.93361282,147.7513898,273.7145686,213.2850504,0.000971584,0.006214059,0.003265044,36.1298027,0.320228457,-58.68218231
74.793253,0.949660659,0.025978805,-0.061462291,9.105061531,1020.14209,31.26802254,148.1597668,273.6619078,212.8838724,-0.000250627,0.003462384,0.000514283,36.0867424,0.396816462,-59.00554657
74.916019,0.948933303,0.032534208,-0.079057381,9.105061531,1020.133301,31.24484444,148.5754248,273.674448,212.4421641,0.003108471,0.006210654,-0.006509325,36.01249313,0.267641693,-59.0761261
75.038249,0.947963536,0.028649524,-0.058569949,9.212730408,1020.131836,29.50658035,148.6085102,273.6469565,212.4226161,0.001580725,0.005902492,0.004790558,36.00156403,0.4826487,-58.69916153
75.160391,0.950630426,0.02743556,-0.063631549,9.266564369,1020.129395,31.46005821,149.1067179,273.6259605,211.8825394,0.001885524,0.001931554,-0.004982227,35.70019913,0.543535292,-58.33462524
75.287252,0.950387955,0.040060773,-0.072308578,9.051226616,1020.132568,31.70838165,149.1773967,273.6798302,211.7859332,0.001274333,0.007122593,0.003263896,35.78162384,1.169077158,-58.57391357
